Angle Intensity Error
10.000 234.000 1.000
10.020 234.000 1.000
10.040 234.000 1.000
10.060 236.000 1.000
10.080 237.000 1.000
10.100 226.000 1.000
10.120 239.000 1.000
10.140 233.000 1.000
10.160 244.000 1.000
10.180 253.000 1.000
10.200 239.000 1.000
10.220 230.000 1.000
10.240 228.000 1.000
10.260 239.000 1.000
10.280 240.000 1.000
10.300 248.000 1.000
10.320 244.000 1.000
10.340 227.000 1.000
10.360 243.000 1.000
10.380 237.000 1.000
10.400 239.000 1.000
10.420 249.000 1.000
10.440 238.000 1.000
10.460 221.000 1.000
10.480 240.000 1.000
10.500 243.000 1.000
10.520 223.000 1.000
10.540 222.000 1.000
10.560 241.000 1.000
10.580 249.000 1.000
10.600 231.000 1.000
10.620 222.000 1.000
10.640 222.000 1.000
10.660 238.000 1.000
10.680 244.000 1.000
10.700 247.000 1.000
10.720 253.000 1.000
10.740 250.000 1.000
10.760 232.000 1.000
10.780 240.000 1.000
10.800 247.000 1.000
10.820 239.000 1.000
10.840 228.000 1.000
10.860 237.000 1.000
10.880 240.000 1.000
10.900 224.000 1.000
10.920 228.000 1.000
10.940 235.000 1.000
10.960 245.000 1.000
10.980 245.000 1.000
11.000 248.000 1.000
11.020 245.000 1.000
11.040 238.000 1.000
11.060 222.000 1.000
11.080 232.000 1.000
11.100 237.000 1.000
11.120 234.000 1.000
11.140 237.000 1.000
11.160 242.000 1.000
11.180 249.000 1.000
11.200 260.000 1.000
11.220 242.000 1.000
11.240 225.000 1.000
11.260 234.000 1.000
11.280 253.000 1.000
11.300 252.000 1.000
11.320 255.000 1.000
11.340 251.000 1.000
11.360 231.000 1.000
11.380 235.000 1.000
11.400 228.000 1.000
11.420 247.000 1.000
11.440 252.000 1.000
11.460 244.000 1.000
11.480 235.000 1.000
11.500 248.000 1.000
11.520 243.000 1.000
11.540 245.000 1.000
11.560 245.000 1.000
11.580 248.000 1.000
11.600 254.000 1.000
11.620 267.000 1.000
11.640 238.000 1.000
11.660 258.000 1.000
11.680 235.000 1.000
11.700 245.000 1.000
11.720 243.000 1.000
11.740 245.000 1.000
11.760 240.000 1.000
11.780 233.000 1.000
11.800 242.000 1.000
11.820 231.000 1.000
11.840 244.000 1.000
11.860 255.000 1.000
11.880 234.000 1.000
11.900 229.000 1.000
11.920 244.000 1.000
11.940 266.000 1.000
11.960 233.000 1.000
11.980 219.000 1.000
12.000 226.000 1.000
12.020 251.000 1.000
12.040 242.000 1.000
12.060 245.000 1.000
12.080 237.000 1.000
12.100 234.000 1.000
12.120 234.000 1.000
12.140 245.000 1.000
12.160 232.000 1.000
12.180 237.000 1.000
12.200 232.000 1.000
12.220 230.000 1.000
12.240 240.000 1.000
12.260 251.000 1.000
12.280 241.000 1.000
12.300 248.000 1.000
12.320 236.000 1.000
12.340 248.000 1.000
12.360 261.000 1.000
12.380 251.000 1.000
12.400 228.000 1.000
12.420 241.000 1.000
12.440 236.000 1.000
12.460 245.000 1.000
12.480 238.000 1.000
12.500 243.000 1.000
12.520 243.000 1.000
12.540 247.000 1.000
12.560 240.000 1.000
12.580 249.000 1.000
12.600 236.000 1.000
12.620 246.000 1.000
12.640 259.000 1.000
12.660 261.000 1.000
12.680 254.000 1.000
12.700 248.000 1.000
12.720 271.000 1.000
12.740 246.000 1.000
12.760 233.000 1.000
12.780 233.000 1.000
12.800 249.000 1.000
12.820 270.000 1.000
12.840 265.000 1.000
12.860 251.000 1.000
12.880 238.000 1.000
12.900 249.000 1.000
12.920 257.000 1.000
12.940 244.000 1.000
12.960 240.000 1.000
12.980 238.000 1.000
13.000 242.000 1.000
13.020 235.000 1.000
13.040 238.000 1.000
13.060 232.000 1.000
13.080 236.000 1.000
13.100 238.000 1.000
13.120 237.000 1.000
13.140 267.000 1.000
13.160 271.000 1.000
13.180 257.000 1.000
13.200 244.000 1.000
13.220 254.000 1.000
13.240 249.000 1.000
13.260 248.000 1.000
13.280 238.000 1.000
13.300 232.000 1.000
13.320 235.000 1.000
13.340 255.000 1.000
13.360 250.000 1.000
13.380 257.000 1.000
13.400 262.000 1.000
13.420 262.000 1.000
13.440 246.000 1.000
13.460 252.000 1.000
13.480 248.000 1.000
13.500 248.000 1.000
13.520 234.000 1.000
13.540 231.000 1.000
13.560 229.000 1.000
13.580 247.000 1.000
13.600 263.000 1.000
13.620 239.000 1.000
13.640 245.000 1.000
13.660 247.000 1.000
13.680 230.000 1.000
13.700 249.000 1.000
13.720 250.000 1.000
13.740 240.000 1.000
13.760 242.000 1.000
13.780 247.000 1.000
13.800 251.000 1.000
13.820 235.000 1.000
13.840 233.000 1.000
13.860 248.000 1.000
13.880 251.000 1.000
13.900 248.000 1.000
13.920 244.000 1.000
13.940 250.000 1.000
13.960 248.000 1.000
13.980 255.000 1.000
14.000 251.000 1.000
14.020 260.000 1.000
14.040 247.000 1.000
14.060 243.000 1.000
14.080 244.000 1.000
14.100 274.000 1.000
14.120 262.000 1.000
14.140 247.000 1.000
14.160 247.000 1.000
14.180 279.000 1.000
14.200 256.000 1.000
14.220 249.000 1.000
14.240 256.000 1.000
14.260 256.000 1.000
14.280 248.000 1.000
14.300 239.000 1.000
14.320 255.000 1.000
14.340 250.000 1.000
14.360 253.000 1.000
14.380 261.000 1.000
14.400 274.000 1.000
14.420 250.000 1.000
14.440 265.000 1.000
14.460 253.000 1.000
14.480 248.000 1.000
14.500 243.000 1.000
14.520 234.000 1.000
14.540 245.000 1.000
14.560 273.000 1.000
14.580 277.000 1.000
14.600 259.000 1.000
14.620 271.000 1.000
14.640 266.000 1.000
14.660 245.000 1.000
14.680 259.000 1.000
14.700 273.000 1.000
14.720 276.000 1.000
14.740 281.000 1.000
14.760 278.000 1.000
14.780 276.000 1.000
14.800 265.000 1.000
14.820 276.000 1.000
14.840 257.000 1.000
14.860 255.000 1.000
14.880 266.000 1.000
14.900 258.000 1.000
14.920 268.000 1.000
14.940 276.000 1.000
14.960 281.000 1.000
14.980 272.000 1.000
15.000 280.000 1.000
15.020 276.000 1.000
15.040 283.000 1.000
15.060 278.000 1.000
15.080 251.000 1.000
15.100 250.000 1.000
15.120 247.000 1.000
15.140 262.000 1.000
15.160 269.000 1.000
15.180 294.000 1.000
15.200 294.000 1.000
15.220 276.000 1.000
15.240 296.000 1.000
15.260 280.000 1.000
15.280 271.000 1.000
15.300 253.000 1.000
15.320 270.000 1.000
15.340 275.000 1.000
15.360 283.000 1.000
15.380 277.000 1.000
15.400 254.000 1.000
15.420 268.000 1.000
15.440 281.000 1.000
15.460 283.000 1.000
15.480 273.000 1.000
15.500 285.000 1.000
15.520 276.000 1.000
15.540 272.000 1.000
15.560 265.000 1.000
15.580 278.000 1.000
15.600 287.000 1.000
15.620 292.000 1.000
15.640 272.000 1.000
15.660 276.000 1.000
15.680 274.000 1.000
15.700 287.000 1.000
15.720 289.000 1.000
15.740 290.000 1.000
15.760 276.000 1.000
15.780 270.000 1.000
15.800 280.000 1.000
15.820 288.000 1.000
15.840 272.000 1.000
15.860 288.000 1.000
15.880 295.000 1.000
15.900 288.000 1.000
15.920 277.000 1.000
15.940 281.000 1.000
15.960 294.000 1.000
15.980 299.000 1.000
16.000 281.000 1.000
16.020 278.000 1.000
16.040 295.000 1.000
16.060 308.000 1.000
16.080 284.000 1.000
16.100 286.000 1.000
16.120 301.000 1.000
16.140 297.000 1.000
16.160 282.000 1.000
16.180 284.000 1.000
16.200 307.000 1.000
16.220 285.000 1.000
16.240 275.000 1.000
16.260 299.000 1.000
16.280 291.000 1.000
16.300 307.000 1.000
16.320 311.000 1.000
16.340 298.000 1.000
16.360 285.000 1.000
16.380 292.000 1.000
16.400 290.000 1.000
16.420 320.000 1.000
16.440 295.000 1.000
16.460 278.000 1.000
16.480 290.000 1.000
16.500 306.000 1.000
16.520 274.000 1.000
16.540 300.000 1.000
16.560 285.000 1.000
16.580 313.000 1.000
16.600 308.000 1.000
16.620 295.000 1.000
16.640 299.000 1.000
16.660 301.000 1.000
16.680 304.000 1.000
16.700 290.000 1.000
16.720 315.000 1.000
16.740 320.000 1.000
16.760 319.000 1.000
16.780 306.000 1.000
16.800 286.000 1.000
16.820 310.000 1.000
16.840 331.000 1.000
16.860 313.000 1.000
16.880 303.000 1.000
16.900 307.000 1.000
16.920 318.000 1.000
16.940 307.000 1.000
16.960 334.000 1.000
16.980 338.000 1.000
17.000 313.000 1.000
17.020 291.000 1.000
17.040 302.000 1.000
17.060 319.000 1.000
17.080 285.000 1.000
17.100 308.000 1.000
17.120 316.000 1.000
17.140 310.000 1.000
17.160 313.000 1.000
17.180 333.000 1.000
17.200 302.000 1.000
17.220 323.000 1.000
17.240 335.000 1.000
17.260 312.000 1.000
17.280 344.000 1.000
17.300 340.000 1.000
17.320 314.000 1.000
17.340 311.000 1.000
17.360 310.000 1.000
17.380 314.000 1.000
17.400 308.000 1.000
17.420 300.000 1.000
17.440 311.000 1.000
17.460 323.000 1.000
17.480 316.000 1.000
17.500 315.000 1.000
17.520 324.000 1.000
17.540 306.000 1.000
17.560 313.000 1.000
17.580 326.000 1.000
17.600 334.000 1.000
17.620 355.000 1.000
17.640 337.000 1.000
17.660 328.000 1.000
17.680 339.000 1.000
17.700 351.000 1.000
17.720 342.000 1.000
17.740 342.000 1.000
17.760 341.000 1.000
17.780 329.000 1.000
17.800 328.000 1.000
17.820 341.000 1.000
17.840 342.000 1.000
17.860 333.000 1.000
17.880 335.000 1.000
17.900 332.000 1.000
17.920 309.000 1.000
17.940 336.000 1.000
17.960 344.000 1.000
17.980 341.000 1.000
18.000 339.000 1.000
18.020 332.000 1.000
18.040 324.000 1.000
18.060 315.000 1.000
18.080 332.000 1.000
18.100 340.000 1.000
18.120 339.000 1.000
18.140 339.000 1.000
18.160 335.000 1.000
18.180 339.000 1.000
18.200 333.000 1.000
18.220 340.000 1.000
18.240 345.000 1.000
18.260 347.000 1.000
18.280 343.000 1.000
18.300 335.000 1.000
18.320 342.000 1.000
18.340 347.000 1.000
18.360 332.000 1.000
18.380 346.000 1.000
18.400 365.000 1.000
18.420 348.000 1.000
18.440 356.000 1.000
18.460 350.000 1.000
18.480 345.000 1.000
18.500 340.000 1.000
18.520 330.000 1.000
18.540 343.000 1.000
18.560 332.000 1.000
18.580 345.000 1.000
18.600 376.000 1.000
18.620 389.000 1.000
18.640 358.000 1.000
18.660 346.000 1.000
18.680 362.000 1.000
18.700 377.000 1.000
18.720 390.000 1.000
18.740 372.000 1.000
18.760 397.000 1.000
18.780 364.000 1.000
18.800 364.000 1.000
18.820 384.000 1.000
18.840 378.000 1.000
18.860 355.000 1.000
18.880 358.000 1.000
18.900 362.000 1.000
18.920 349.000 1.000
18.940 336.000 1.000
18.960 367.000 1.000
18.980 375.000 1.000
19.000 363.000 1.000
19.020 370.000 1.000
19.040 369.000 1.000
19.060 374.000 1.000
19.080 367.000 1.000
19.100 355.000 1.000
19.120 362.000 1.000
19.140 363.000 1.000
19.160 347.000 1.000
19.180 356.000 1.000
19.200 369.000 1.000
19.220 373.000 1.000
19.240 386.000 1.000
19.260 392.000 1.000
19.280 370.000 1.000
19.300 371.000 1.000
19.320 397.000 1.000
19.340 414.000 1.000
19.360 383.000 1.000
19.380 380.000 1.000
19.400 401.000 1.000
19.420 372.000 1.000
19.440 381.000 1.000
19.460 374.000 1.000
19.480 402.000 1.000
19.500 407.000 1.000
19.520 379.000 1.000
19.540 377.000 1.000
19.560 391.000 1.000
19.580 386.000 1.000
19.600 367.000 1.000
19.620 372.000 1.000
19.640 374.000 1.000
19.660 400.000 1.000
19.680 413.000 1.000
19.700 411.000 1.000
19.720 366.000 1.000
19.740 391.000 1.000
19.760 405.000 1.000
19.780 387.000 1.000
19.800 397.000 1.000
19.820 389.000 1.000
19.840 401.000 1.000
19.860 435.000 1.000
19.880 405.000 1.000
19.900 429.000 1.000
19.920 402.000 1.000
19.940 398.000 1.000
19.960 394.000 1.000
19.980 387.000 1.000
20.000 376.000 1.000
20.020 396.000 1.000
20.040 393.000 1.000
20.060 403.000 1.000
20.080 381.000 1.000
20.100 386.000 1.000
20.120 427.000 1.000
20.140 406.000 1.000
20.160 414.000 1.000
20.180 429.000 1.000
20.200 405.000 1.000
20.220 402.000 1.000
20.240 407.000 1.000
20.260 421.000 1.000
20.280 404.000 1.000
20.300 415.000 1.000
20.320 410.000 1.000
20.340 419.000 1.000
20.360 431.000 1.000
20.380 436.000 1.000
20.400 403.000 1.000
20.420 415.000 1.000
20.440 413.000 1.000
20.460 389.000 1.000
20.480 400.000 1.000
20.500 386.000 1.000
20.520 369.000 1.000
20.540 399.000 1.000
20.560 402.000 1.000
20.580 411.000 1.000
20.600 430.000 1.000
20.620 421.000 1.000
20.640 423.000 1.000
20.660 415.000 1.000
20.680 427.000 1.000
20.700 429.000 1.000
20.720 407.000 1.000
20.740 407.000 1.000
20.760 407.000 1.000
20.780 407.000 1.000
20.800 423.000 1.000
20.820 425.000 1.000
20.840 433.000 1.000
20.860 424.000 1.000
20.880 421.000 1.000
20.900 400.000 1.000
20.920 379.000 1.000
20.940 373.000 1.000
20.960 400.000 1.000
20.980 418.000 1.000
21.000 427.000 1.000
21.020 426.000 1.000
21.040 407.000 1.000
21.060 422.000 1.000
21.080 402.000 1.000
21.100 432.000 1.000
21.120 421.000 1.000
21.140 406.000 1.000
21.160 396.000 1.000
21.180 428.000 1.000
21.200 416.000 1.000
21.220 408.000 1.000
21.240 426.000 1.000
21.260 441.000 1.000
21.280 466.000 1.000
21.300 424.000 1.000
21.320 391.000 1.000
21.340 412.000 1.000
21.360 402.000 1.000
21.380 423.000 1.000
21.400 421.000 1.000
21.420 454.000 1.000
21.440 466.000 1.000
21.460 455.000 1.000
21.480 445.000 1.000
21.500 405.000 1.000
21.520 411.000 1.000
21.540 451.000 1.000
21.560 436.000 1.000
21.580 459.000 1.000
21.600 443.000 1.000
21.620 435.000 1.000
21.640 420.000 1.000
21.660 435.000 1.000
21.680 447.000 1.000
21.700 459.000 1.000
21.720 469.000 1.000
21.740 450.000 1.000
21.760 447.000 1.000
21.780 424.000 1.000
21.800 452.000 1.000
21.820 477.000 1.000
21.840 438.000 1.000
21.860 439.000 1.000
21.880 452.000 1.000
21.900 450.000 1.000
21.920 470.000 1.000
21.940 458.000 1.000
21.960 448.000 1.000
21.980 466.000 1.000
22.000 435.000 1.000
22.020 420.000 1.000
22.040 453.000 1.000
22.060 443.000 1.000
22.080 449.000 1.000
22.100 462.000 1.000
22.120 459.000 1.000
22.140 438.000 1.000
22.160 444.000 1.000
22.180 466.000 1.000
22.200 444.000 1.000
22.220 456.000 1.000
22.240 477.000 1.000
22.260 449.000 1.000
22.280 454.000 1.000
22.300 435.000 1.000
22.320 412.000 1.000
22.340 439.000 1.000
22.360 462.000 1.000
22.380 462.000 1.000
22.400 476.000 1.000
22.420 464.000 1.000
22.440 471.000 1.000
22.460 465.000 1.000
22.480 439.000 1.000
22.500 454.000 1.000
22.520 466.000 1.000
22.540 481.000 1.000
22.560 483.000 1.000
22.580 481.000 1.000
22.600 507.000 1.000
22.620 523.000 1.000
22.640 540.000 1.000
22.660 545.000 1.000
22.680 582.000 1.000
22.700 570.000 1.000
22.720 544.000 1.000
22.740 532.000 1.000
22.760 507.000 1.000
22.780 504.000 1.000
22.800 495.000 1.000
22.820 489.000 1.000
22.840 479.000 1.000
22.860 475.000 1.000
22.880 474.000 1.000
22.900 452.000 1.000
22.920 471.000 1.000
22.940 472.000 1.000
22.960 459.000 1.000
22.980 454.000 1.000
23.000 472.000 1.000
23.020 482.000 1.000
23.040 511.000 1.000
23.060 487.000 1.000
23.080 473.000 1.000
23.100 488.000 1.000
23.120 481.000 1.000
23.140 511.000 1.000
23.160 492.000 1.000
23.180 486.000 1.000
23.200 471.000 1.000
23.220 469.000 1.000
23.240 504.000 1.000
23.260 494.000 1.000
23.280 501.000 1.000
23.300 501.000 1.000
23.320 489.000 1.000
23.340 511.000 1.000
23.360 512.000 1.000
23.380 544.000 1.000
23.400 523.000 1.000
23.420 499.000 1.000
23.440 506.000 1.000
23.460 510.000 1.000
23.480 506.000 1.000
23.500 506.000 1.000
23.520 557.000 1.000
23.540 551.000 1.000
23.560 563.000 1.000
23.580 564.000 1.000
23.600 594.000 1.000
23.620 592.000 1.000
23.640 589.000 1.000
23.660 593.000 1.000
23.680 635.000 1.000
23.700 606.000 1.000
23.720 602.000 1.000
23.740 587.000 1.000
23.760 565.000 1.000
23.780 539.000 1.000
23.800 534.000 1.000
23.820 565.000 1.000
23.840 554.000 1.000
23.860 527.000 1.000
23.880 525.000 1.000
23.900 542.000 1.000
23.920 552.000 1.000
23.940 566.000 1.000
23.960 582.000 1.000
23.980 584.000 1.000
24.000 565.000 1.000
24.020 578.000 1.000
24.040 594.000 1.000
24.060 624.000 1.000
24.080 606.000 1.000
24.100 617.000 1.000
24.120 600.000 1.000
24.140 608.000 1.000
24.160 612.000 1.000
24.180 607.000 1.000
24.200 618.000 1.000
24.220 607.000 1.000
24.240 615.000 1.000
24.260 671.000 1.000
24.280 660.000 1.000
24.300 632.000 1.000
24.320 658.000 1.000
24.340 679.000 1.000
24.360 674.000 1.000
24.380 710.000 1.000
24.400 739.000 1.000
24.420 717.000 1.000
24.440 750.000 1.000
24.460 771.000 1.000
24.480 770.000 1.000
24.500 754.000 1.000
24.520 742.000 1.000
24.540 728.000 1.000
24.560 754.000 1.000
24.580 766.000 1.000
24.600 774.000 1.000
24.620 742.000 1.000
24.640 810.000 1.000
24.660 783.000 1.000
24.680 810.000 1.000
24.700 825.000 1.000
24.720 822.000 1.000
24.740 868.000 1.000
24.760 901.000 1.000
24.780 919.000 1.000
24.800 929.000 1.000
24.820 935.000 1.000
24.840 954.000 1.000
24.860 955.000 1.000
24.880 950.000 1.000
24.900 989.000 1.000
24.920 1011.000 1.000
24.940 1014.000 1.000
24.960 1032.000 1.000
24.980 1023.000 1.000
25.000 1076.000 1.000
25.020 1096.000 1.000
25.040 1132.000 1.000
25.060 1146.000 1.000
25.080 1157.000 1.000
25.100 1175.000 1.000
25.120 1232.000 1.000
25.140 1243.000 1.000
25.160 1278.000 1.000
25.180 1324.000 1.000
25.200 1316.000 1.000
25.220 1351.000 1.000
25.240 1375.000 1.000
25.260 1441.000 1.000
25.280 1407.000 1.000
25.300 1427.000 1.000
25.320 1466.000 1.000
25.340 1511.000 1.000
25.360 1518.000 1.000
25.380 1615.000 1.000
25.400 1655.000 1.000
25.420 1692.000 1.000
25.440 1699.000 1.000
25.460 1753.000 1.000
25.480 1797.000 1.000
25.500 1855.000 1.000
25.520 1899.000 1.000
25.540 1950.000 1.000
25.560 1940.000 1.000
25.580 1993.000 1.000
25.600 2103.000 1.000
25.620 2172.000 1.000
25.640 2151.000 1.000
25.660 2209.000 1.000
25.680 2251.000 1.000
25.700 2322.000 1.000
25.720 2358.000 1.000
25.740 2401.000 1.000
25.760 2397.000 1.000
25.780 2400.000 1.000
25.800 2514.000 1.000
25.820 2560.000 1.000
25.840 2609.000 1.000
25.860 2638.000 1.000
25.880 2661.000 1.000
25.900 2690.000 1.000
25.920 2764.000 1.000
25.940 2819.000 1.000
25.960 2851.000 1.000
25.980 2874.000 1.000
26.000 2926.000 1.000
26.020 3015.000 1.000
26.040 3069.000 1.000
26.060 3014.000 1.000
26.080 3079.000 1.000
26.100 3199.000 1.000
26.120 3273.000 1.000
26.140 3337.000 1.000
26.160 3501.000 1.000
26.180 3525.000 1.000
26.200 3815.000 1.000
26.220 3956.000 1.000
26.240 4097.000 1.000
26.260 4383.000 1.000
26.280 4809.000 1.000
26.300 5298.000 1.000
26.320 5747.000 1.000
26.340 6380.000 1.000
26.360 7226.000 1.000
26.380 8182.000 1.000
26.400 9062.000 1.000
26.420 9878.000 1.000
26.440 10715.000 1.000
26.460 11028.000 1.000
26.480 11164.000 1.000
26.500 10794.000 1.000
26.520 10195.000 1.000
26.540 9197.000 1.000
26.560 7852.000 1.000
26.580 6658.000 1.000
26.600 5499.000 1.000
26.620 4492.000 1.000
26.640 3649.000 1.000
26.660 3013.000 1.000
26.680 2535.000 1.000
26.700 2198.000 1.000
26.720 2042.000 1.000
26.740 1805.000 1.000
26.760 1680.000 1.000
26.780 1612.000 1.000
26.800 1475.000 1.000
26.820 1351.000 1.000
26.840 1304.000 1.000
26.860 1212.000 1.000
26.880 1149.000 1.000
26.900 1130.000 1.000
26.920 1095.000 1.000
26.940 1084.000 1.000
26.960 1013.000 1.000
26.980 1014.000 1.000
27.000 955.000 1.000
27.020 903.000 1.000
27.040 870.000 1.000
27.060 820.000 1.000
27.080 794.000 1.000
27.100 812.000 1.000
27.120 806.000 1.000
27.140 772.000 1.000
27.160 729.000 1.000
27.180 740.000 1.000
27.200 730.000 1.000
27.220 705.000 1.000
27.240 684.000 1.000
27.260 682.000 1.000
27.280 615.000 1.000
27.300 640.000 1.000
27.320 601.000 1.000
27.340 618.000 1.000
27.360 612.000 1.000
27.380 631.000 1.000
27.400 596.000 1.000
27.420 596.000 1.000
27.440 599.000 1.000
27.460 561.000 1.000
27.480 567.000 1.000
27.500 527.000 1.000
27.520 499.000 1.000
27.540 518.000 1.000
27.560 531.000 1.000
27.580 488.000 1.000
27.600 524.000 1.000
27.620 509.000 1.000
27.640 494.000 1.000
27.660 470.000 1.000
27.680 466.000 1.000
27.700 461.000 1.000
27.720 482.000 1.000
27.740 484.000 1.000
27.760 459.000 1.000
27.780 471.000 1.000
27.800 471.000 1.000
27.820 483.000 1.000
27.840 425.000 1.000
27.860 428.000 1.000
27.880 432.000 1.000
27.900 435.000 1.000
27.920 423.000 1.000
27.940 405.000 1.000
27.960 433.000 1.000
27.980 447.000 1.000
28.000 420.000 1.000
28.020 401.000 1.000
28.040 387.000 1.000
28.060 388.000 1.000
28.080 407.000 1.000
28.100 416.000 1.000
28.120 412.000 1.000
28.140 397.000 1.000
28.160 379.000 1.000
28.180 372.000 1.000
28.200 374.000 1.000
28.220 387.000 1.000
28.240 412.000 1.000
28.260 379.000 1.000
28.280 353.000 1.000
28.300 345.000 1.000
28.320 358.000 1.000
28.340 378.000 1.000
28.360 391.000 1.000
28.380 383.000 1.000
28.400 395.000 1.000
28.420 374.000 1.000
28.440 346.000 1.000
28.460 356.000 1.000
28.480 367.000 1.000
28.500 353.000 1.000
28.520 360.000 1.000
28.540 365.000 1.000
28.560 370.000 1.000
28.580 367.000 1.000
28.600 357.000 1.000
28.620 364.000 1.000
28.640 352.000 1.000
28.660 355.000 1.000
28.680 353.000 1.000
28.700 349.000 1.000
28.720 342.000 1.000
28.740 338.000 1.000
28.760 329.000 1.000
28.780 303.000 1.000
28.800 320.000 1.000
28.820 361.000 1.000
28.840 335.000 1.000
28.860 329.000 1.000
28.880 335.000 1.000
28.900 331.000 1.000
28.920 344.000 1.000
28.940 350.000 1.000
28.960 333.000 1.000
28.980 328.000 1.000
29.000 326.000 1.000
29.020 329.000 1.000
29.040 331.000 1.000
29.060 313.000 1.000
29.080 292.000 1.000
29.100 331.000 1.000
29.120 330.000 1.000
29.140 322.000 1.000
29.160 302.000 1.000
29.180 303.000 1.000
29.200 338.000 1.000
29.220 339.000 1.000
29.240 291.000 1.000
29.260 289.000 1.000
29.280 302.000 1.000
29.300 336.000 1.000
29.320 320.000 1.000
29.340 327.000 1.000
29.360 334.000 1.000
29.380 359.000 1.000
29.400 320.000 1.000
29.420 338.000 1.000
29.440 367.000 1.000
29.460 385.000 1.000
29.480 389.000 1.000
29.500 395.000 1.000
29.520 428.000 1.000
29.540 423.000 1.000
29.560 442.000 1.000
29.580 472.000 1.000
29.600 470.000 1.000
29.620 485.000 1.000
29.640 426.000 1.000
29.660 420.000 1.000
29.680 424.000 1.000
29.700 402.000 1.000
29.720 385.000 1.000
29.740 353.000 1.000
29.760 321.000 1.000
29.780 322.000 1.000
29.800 351.000 1.000
29.820 326.000 1.000
29.840 311.000 1.000
29.860 321.000 1.000
29.880 286.000 1.000
29.900 288.000 1.000
29.920 277.000 1.000
29.940 316.000 1.000
29.960 280.000 1.000
29.980 279.000 1.000
30.000 304.000 1.000
30.020 305.000 1.000
30.040 282.000 1.000
30.060 280.000 1.000
30.080 273.000 1.000
30.100 293.000 1.000
30.120 271.000 1.000
30.140 287.000 1.000
30.160 285.000 1.000
30.180 289.000 1.000
30.200 282.000 1.000
30.220 294.000 1.000
30.240 302.000 1.000
30.260 282.000 1.000
30.280 285.000 1.000
30.300 278.000 1.000
30.320 264.000 1.000
30.340 259.000 1.000
30.360 260.000 1.000
30.380 258.000 1.000
30.400 254.000 1.000
30.420 268.000 1.000
30.440 285.000 1.000
30.460 276.000 1.000
30.480 277.000 1.000
30.500 268.000 1.000
30.520 263.000 1.000
30.540 263.000 1.000
30.560 268.000 1.000
30.580 265.000 1.000
30.600 268.000 1.000
30.620 265.000 1.000
30.640 260.000 1.000
30.660 289.000 1.000
30.680 257.000 1.000
30.700 266.000 1.000
30.720 273.000 1.000
30.740 242.000 1.000
30.760 253.000 1.000
30.780 274.000 1.000
30.800 290.000 1.000
30.820 247.000 1.000
30.840 250.000 1.000
30.860 250.000 1.000
30.880 272.000 1.000
30.900 260.000 1.000
30.920 281.000 1.000
30.940 275.000 1.000
30.960 279.000 1.000
30.980 251.000 1.000
31.000 253.000 1.000
31.020 261.000 1.000
31.040 269.000 1.000
31.060 249.000 1.000
31.080 265.000 1.000
31.100 284.000 1.000
31.120 278.000 1.000
31.140 282.000 1.000
31.160 260.000 1.000
31.180 252.000 1.000
31.200 275.000 1.000
31.220 276.000 1.000
31.240 276.000 1.000
31.260 283.000 1.000
31.280 252.000 1.000
31.300 239.000 1.000
31.320 256.000 1.000
31.340 278.000 1.000
31.360 243.000 1.000
31.380 267.000 1.000
31.400 275.000 1.000
31.420 259.000 1.000
31.440 259.000 1.000
31.460 268.000 1.000
31.480 266.000 1.000
31.500 257.000 1.000
31.520 251.000 1.000
31.540 253.000 1.000
31.560 270.000 1.000
31.580 258.000 1.000
31.600 245.000 1.000
31.620 252.000 1.000
31.640 281.000 1.000
31.660 273.000 1.000
31.680 257.000 1.000
31.700 257.000 1.000
31.720 269.000 1.000
31.740 281.000 1.000
31.760 294.000 1.000
31.780 298.000 1.000
31.800 320.000 1.000
31.820 371.000 1.000
31.840 382.000 1.000
31.860 388.000 1.000
31.880 433.000 1.000
31.900 424.000 1.000
31.920 398.000 1.000
31.940 412.000 1.000
31.960 405.000 1.000
31.980 374.000 1.000
32.000 316.000 1.000
32.020 308.000 1.000
32.040 288.000 1.000
32.060 274.000 1.000
32.080 276.000 1.000
32.100 244.000 1.000
32.120 265.000 1.000
32.140 263.000 1.000
32.160 263.000 1.000
32.180 265.000 1.000
32.200 253.000 1.000
32.220 260.000 1.000
32.240 253.000 1.000
32.260 256.000 1.000
32.280 249.000 1.000
32.300 251.000 1.000
32.320 267.000 1.000
32.340 250.000 1.000
32.360 259.000 1.000
32.380 249.000 1.000
32.400 255.000 1.000
32.420 254.000 1.000
32.440 230.000 1.000
32.460 230.000 1.000
32.480 252.000 1.000
32.500 245.000 1.000
32.520 256.000 1.000
32.540 234.000 1.000
32.560 226.000 1.000
32.580 254.000 1.000
32.600 266.000 1.000
32.620 250.000 1.000
32.640 260.000 1.000
32.660 241.000 1.000
32.680 262.000 1.000
32.700 273.000 1.000
32.720 229.000 1.000
32.740 236.000 1.000
32.760 219.000 1.000
32.780 238.000 1.000
32.800 250.000 1.000
32.820 241.000 1.000
32.840 230.000 1.000
32.860 238.000 1.000
32.880 231.000 1.000
32.900 235.000 1.000
32.920 242.000 1.000
32.940 237.000 1.000
32.960 246.000 1.000
32.980 248.000 1.000
33.000 241.000 1.000
33.020 244.000 1.000
33.040 248.000 1.000
33.060 228.000 1.000
33.080 224.000 1.000
33.100 219.000 1.000
33.120 238.000 1.000
33.140 252.000 1.000
33.160 234.000 1.000
33.180 246.000 1.000
33.200 257.000 1.000
33.220 257.000 1.000
33.240 251.000 1.000
33.260 255.000 1.000
33.280 251.000 1.000
33.300 231.000 1.000
33.320 244.000 1.000
33.340 274.000 1.000
33.360 271.000 1.000
33.380 252.000 1.000
33.400 248.000 1.000
33.420 223.000 1.000
33.440 240.000 1.000
33.460 252.000 1.000
33.480 278.000 1.000
33.500 242.000 1.000
33.520 227.000 1.000
33.540 222.000 1.000
33.560 266.000 1.000
33.580 258.000 1.000
33.600 247.000 1.000
33.620 245.000 1.000
33.640 224.000 1.000
33.660 266.000 1.000
33.680 238.000 1.000
33.700 243.000 1.000
33.720 256.000 1.000
33.740 246.000 1.000
33.760 264.000 1.000
33.780 240.000 1.000
33.800 244.000 1.000
33.820 250.000 1.000
33.840 245.000 1.000
33.860 244.000 1.000
33.880 251.000 1.000
33.900 252.000 1.000
33.920 265.000 1.000
33.940 286.000 1.000
33.960 262.000 1.000
33.980 285.000 1.000
34.000 309.000 1.000
34.020 310.000 1.000
34.040 324.000 1.000
34.060 335.000 1.000
34.080 319.000 1.000
34.100 331.000 1.000
34.120 313.000 1.000
34.140 304.000 1.000
34.160 250.000 1.000
34.180 277.000 1.000
34.200 259.000 1.000
34.220 244.000 1.000
34.240 256.000 1.000
34.260 255.000 1.000
34.280 261.000 1.000
34.300 237.000 1.000
34.320 238.000 1.000
34.340 261.000 1.000
34.360 249.000 1.000
34.380 230.000 1.000
34.400 236.000 1.000
34.420 255.000 1.000
34.440 253.000 1.000
34.460 231.000 1.000
34.480 255.000 1.000
34.500 234.000 1.000
34.520 239.000 1.000
34.540 222.000 1.000
34.560 240.000 1.000
34.580 229.000 1.000
34.600 249.000 1.000
34.620 229.000 1.000
34.640 239.000 1.000
34.660 247.000 1.000
34.680 248.000 1.000
34.700 225.000 1.000
34.720 234.000 1.000
34.740 250.000 1.000
34.760 238.000 1.000
34.780 250.000 1.000
34.800 256.000 1.000
34.820 254.000 1.000
34.840 241.000 1.000
34.860 253.000 1.000
34.880 244.000 1.000
34.900 241.000 1.000
34.920 228.000 1.000
34.940 248.000 1.000
34.960 241.000 1.000
34.980 257.000 1.000
35.000 253.000 1.000
35.020 244.000 1.000
35.040 241.000 1.000
35.060 232.000 1.000
35.080 267.000 1.000
35.100 238.000 1.000
35.120 261.000 1.000
35.140 264.000 1.000
35.160 262.000 1.000
35.180 262.000 1.000
35.200 250.000 1.000
35.220 231.000 1.000
35.240 253.000 1.000
35.260 242.000 1.000
35.280 223.000 1.000
35.300 242.000 1.000
35.320 264.000 1.000
35.340 251.000 1.000
35.360 244.000 1.000
35.380 286.000 1.000
35.400 272.000 1.000
35.420 262.000 1.000
35.440 276.000 1.000
35.460 239.000 1.000
35.480 248.000 1.000
35.500 274.000 1.000
35.520 262.000 1.000
35.540 266.000 1.000
35.560 260.000 1.000
35.580 266.000 1.000
35.600 274.000 1.000
35.620 250.000 1.000
35.640 292.000 1.000
35.660 265.000 1.000
35.680 278.000 1.000
35.700 261.000 1.000
35.720 270.000 1.000
35.740 290.000 1.000
35.760 304.000 1.000
35.780 284.000 1.000
35.800 280.000 1.000
35.820 291.000 1.000
35.840 292.000 1.000
35.860 277.000 1.000
35.880 295.000 1.000
35.900 311.000 1.000
35.920 302.000 1.000
35.940 309.000 1.000
35.960 326.000 1.000
35.980 337.000 1.000
36.000 363.000 1.000
36.020 364.000 1.000
36.040 357.000 1.000
36.060 391.000 1.000
36.080 413.000 1.000
36.100 397.000 1.000
36.120 404.000 1.000
36.140 450.000 1.000
36.160 496.000 1.000
36.180 532.000 1.000
36.200 602.000 1.000
36.220 660.000 1.000
36.240 761.000 1.000
36.260 864.000 1.000
36.280 980.000 1.000
36.300 1160.000 1.000
36.320 1375.000 1.000
36.340 1490.000 1.000
36.360 1742.000 1.000
36.380 1963.000 1.000
36.400 2121.000 1.000
36.420 2282.000 1.000
36.440 2338.000 1.000
36.460 2398.000 1.000
36.480 2287.000 1.000
36.500 2218.000 1.000
36.520 2163.000 1.000
36.540 1942.000 1.000
36.560 1741.000 1.000
36.580 1530.000 1.000
36.600 1324.000 1.000
36.620 1174.000 1.000
36.640 969.000 1.000
36.660 848.000 1.000
36.680 753.000 1.000
36.700 652.000 1.000
36.720 641.000 1.000
36.740 532.000 1.000
36.760 484.000 1.000
36.780 445.000 1.000
36.800 435.000 1.000
36.820 385.000 1.000
36.840 365.000 1.000
36.860 356.000 1.000
36.880 356.000 1.000
36.900 350.000 1.000
36.920 316.000 1.000
36.940 313.000 1.000
36.960 320.000 1.000
36.980 319.000 1.000
37.000 301.000 1.000
37.020 285.000 1.000
37.040 288.000 1.000
37.060 270.000 1.000
37.080 318.000 1.000
37.100 296.000 1.000
37.120 275.000 1.000
37.140 270.000 1.000
37.160 263.000 1.000
37.180 276.000 1.000
37.200 259.000 1.000
37.220 263.000 1.000
37.240 239.000 1.000
37.260 250.000 1.000
37.280 257.000 1.000
37.300 255.000 1.000
37.320 261.000 1.000
37.340 287.000 1.000
37.360 249.000 1.000
37.380 226.000 1.000
37.400 252.000 1.000
37.420 244.000 1.000
37.440 264.000 1.000
37.460 260.000 1.000
37.480 240.000 1.000
37.500 263.000 1.000
37.520 242.000 1.000
37.540 265.000 1.000
37.560 249.000 1.000
37.580 232.000 1.000
37.600 245.000 1.000
37.620 229.000 1.000
37.640 250.000 1.000
37.660 239.000 1.000
37.680 214.000 1.000
37.700 251.000 1.000
37.720 227.000 1.000
37.740 264.000 1.000
37.760 280.000 1.000
37.780 261.000 1.000
37.800 276.000 1.000
37.820 254.000 1.000
37.840 269.000 1.000
37.860 283.000 1.000
37.880 272.000 1.000
37.900 270.000 1.000
37.920 268.000 1.000
37.940 268.000 1.000
37.960 262.000 1.000
37.980 295.000 1.000
38.000 280.000 1.000
38.020 260.000 1.000
38.040 256.000 1.000
38.060 252.000 1.000
38.080 234.000 1.000
38.100 237.000 1.000
38.120 231.000 1.000
38.140 219.000 1.000
38.160 231.000 1.000
38.180 237.000 1.000
38.200 226.000 1.000
38.220 250.000 1.000
38.240 230.000 1.000
38.260 260.000 1.000
38.280 246.000 1.000
38.300 236.000 1.000
38.320 246.000 1.000
38.340 219.000 1.000
38.360 234.000 1.000
38.380 223.000 1.000
38.400 238.000 1.000
38.420 237.000 1.000
38.440 229.000 1.000
38.460 247.000 1.000
38.480 238.000 1.000
38.500 218.000 1.000
38.520 234.000 1.000
38.540 216.000 1.000
38.560 231.000 1.000
38.580 235.000 1.000
38.600 227.000 1.000
38.620 237.000 1.000
38.640 236.000 1.000
38.660 252.000 1.000
38.680 241.000 1.000
38.700 251.000 1.000
38.720 271.000 1.000
38.740 233.000 1.000
38.760 249.000 1.000
38.780 250.000 1.000
38.800 219.000 1.000
38.820 222.000 1.000
38.840 232.000 1.000
38.860 259.000 1.000
38.880 235.000 1.000
38.900 231.000 1.000
38.920 248.000 1.000
38.940 233.000 1.000
38.960 213.000 1.000
38.980 214.000 1.000
39.000 230.000 1.000
39.020 236.000 1.000
39.040 230.000 1.000
39.060 231.000 1.000
39.080 223.000 1.000
39.100 234.000 1.000
39.120 247.000 1.000
39.140 250.000 1.000
39.160 228.000 1.000
39.180 236.000 1.000
39.200 242.000 1.000
39.220 243.000 1.000
39.240 239.000 1.000
39.260 217.000 1.000
39.280 214.000 1.000
39.300 236.000 1.000
39.320 238.000 1.000
39.340 228.000 1.000
39.360 242.000 1.000
39.380 249.000 1.000
39.400 249.000 1.000
39.420 220.000 1.000
39.440 221.000 1.000
39.460 236.000 1.000
39.480 206.000 1.000
39.500 217.000 1.000
39.520 240.000 1.000
39.540 239.000 1.000
39.560 242.000 1.000
39.580 226.000 1.000
39.600 233.000 1.000
39.620 231.000 1.000
39.640 236.000 1.000
39.660 219.000 1.000
39.680 225.000 1.000
39.700 243.000 1.000
39.720 218.000 1.000
39.740 197.000 1.000
39.760 228.000 1.000
39.780 260.000 1.000
39.800 243.000 1.000
39.820 214.000 1.000
39.840 209.000 1.000
39.860 234.000 1.000
39.880 221.000 1.000
39.900 236.000 1.000
39.920 226.000 1.000
39.940 236.000 1.000
39.960 214.000 1.000
39.980 240.000 1.000
40.000 251.000 1.000
40.020 227.000 1.000
40.040 235.000 1.000
40.060 216.000 1.000
40.080 240.000 1.000
40.100 230.000 1.000
40.120 224.000 1.000
40.140 240.000 1.000
40.160 202.000 1.000
40.180 215.000 1.000
40.200 247.000 1.000
40.220 227.000 1.000
40.240 239.000 1.000
40.260 231.000 1.000
40.280 232.000 1.000
40.300 250.000 1.000
40.320 241.000 1.000
40.340 235.000 1.000
40.360 255.000 1.000
40.380 254.000 1.000
40.400 236.000 1.000
40.420 237.000 1.000
40.440 233.000 1.000
40.460 228.000 1.000
40.480 246.000 1.000
40.500 215.000 1.000
40.520 244.000 1.000
40.540 238.000 1.000
40.560 243.000 1.000
40.580 242.000 1.000
40.600 233.000 1.000
40.620 239.000 1.000
40.640 231.000 1.000
40.660 225.000 1.000
40.680 227.000 1.000
40.700 222.000 1.000
40.720 245.000 1.000
40.740 239.000 1.000
40.760 229.000 1.000
40.780 208.000 1.000
40.800 221.000 1.000
40.820 258.000 1.000
40.840 222.000 1.000
40.860 240.000 1.000
40.880 246.000 1.000
40.900 220.000 1.000
40.920 244.000 1.000
40.940 249.000 1.000
40.960 266.000 1.000
40.980 223.000 1.000
41.000 246.000 1.000
41.020 265.000 1.000
41.040 229.000 1.000
41.060 243.000 1.000
41.080 260.000 1.000
41.100 244.000 1.000
41.120 233.000 1.000
41.140 232.000 1.000
41.160 242.000 1.000
41.180 238.000 1.000
41.200 229.000 1.000
41.220 252.000 1.000
41.240 230.000 1.000
41.260 259.000 1.000
41.280 244.000 1.000
41.300 228.000 1.000
41.320 254.000 1.000
41.340 232.000 1.000
41.360 246.000 1.000
41.380 237.000 1.000
41.400 252.000 1.000
41.420 246.000 1.000
41.440 213.000 1.000
41.460 237.000 1.000
41.480 217.000 1.000
41.500 235.000 1.000
41.520 257.000 1.000
41.540 249.000 1.000
41.560 255.000 1.000
41.580 276.000 1.000
41.600 237.000 1.000
41.620 241.000 1.000
41.640 250.000 1.000
41.660 241.000 1.000
41.680 234.000 1.000
41.700 240.000 1.000
41.720 250.000 1.000
41.740 293.000 1.000
41.760 316.000 1.000
41.780 298.000 1.000
41.800 298.000 1.000
41.820 266.000 1.000
41.840 285.000 1.000
41.860 284.000 1.000
41.880 315.000 1.000
41.900 277.000 1.000
41.920 292.000 1.000
41.940 284.000 1.000
41.960 307.000 1.000
41.980 309.000 1.000
42.000 326.000 1.000
42.020 344.000 1.000
42.040 360.000 1.000
42.060 350.000 1.000
42.080 374.000 1.000
42.100 411.000 1.000
42.120 452.000 1.000
42.140 454.000 1.000
42.160 452.000 1.000
42.180 522.000 1.000
42.200 551.000 1.000
42.220 602.000 1.000
42.240 643.000 1.000
42.260 686.000 1.000
42.280 700.000 1.000
42.300 787.000 1.000
42.320 788.000 1.000
42.340 779.000 1.000
42.360 754.000 1.000
42.380 789.000 1.000
42.400 756.000 1.000
42.420 685.000 1.000
42.440 662.000 1.000
42.460 673.000 1.000
42.480 579.000 1.000
42.500 590.000 1.000
42.520 577.000 1.000
42.540 538.000 1.000
42.560 495.000 1.000
42.580 447.000 1.000
42.600 427.000 1.000
42.620 409.000 1.000
42.640 381.000 1.000
42.660 402.000 1.000
42.680 393.000 1.000
42.700 348.000 1.000
42.720 350.000 1.000
42.740 336.000 1.000
42.760 345.000 1.000
42.780 313.000 1.000
42.800 298.000 1.000
42.820 312.000 1.000
42.840 342.000 1.000
42.860 320.000 1.000
42.880 301.000 1.000
42.900 317.000 1.000
42.920 288.000 1.000
42.940 319.000 1.000
42.960 320.000 1.000
42.980 321.000 1.000
43.000 331.000 1.000
43.020 339.000 1.000
43.040 329.000 1.000
43.060 343.000 1.000
43.080 299.000 1.000
43.100 311.000 1.000
43.120 318.000 1.000
43.140 344.000 1.000
43.160 349.000 1.000
43.180 347.000 1.000
43.200 371.000 1.000
43.220 394.000 1.000
43.240 393.000 1.000
43.260 391.000 1.000
43.280 415.000 1.000
43.300 425.000 1.000
43.320 431.000 1.000
43.340 466.000 1.000
43.360 406.000 1.000
43.380 411.000 1.000
43.400 412.000 1.000
43.420 385.000 1.000
43.440 375.000 1.000
43.460 391.000 1.000
43.480 384.000 1.000
43.500 350.000 1.000
43.520 357.000 1.000
43.540 363.000 1.000
43.560 337.000 1.000
43.580 330.000 1.000
43.600 303.000 1.000
43.620 318.000 1.000
43.640 326.000 1.000
43.660 296.000 1.000
43.680 281.000 1.000
43.700 281.000 1.000
43.720 291.000 1.000
43.740 294.000 1.000
43.760 283.000 1.000
43.780 290.000 1.000
43.800 299.000 1.000
43.820 294.000 1.000
43.840 283.000 1.000
43.860 265.000 1.000
43.880 279.000 1.000
43.900 287.000 1.000
43.920 289.000 1.000
43.940 270.000 1.000
43.960 267.000 1.000
43.980 252.000 1.000
44.000 265.000 1.000
44.020 264.000 1.000
44.040 273.000 1.000
44.060 256.000 1.000
44.080 268.000 1.000
44.100 272.000 1.000
44.120 241.000 1.000
44.140 270.000 1.000
44.160 258.000 1.000
44.180 244.000 1.000
44.200 253.000 1.000
44.220 231.000 1.000
44.240 267.000 1.000
44.260 265.000 1.000
44.280 253.000 1.000
44.300 248.000 1.000
44.320 254.000 1.000
44.340 255.000 1.000
44.360 263.000 1.000
44.380 255.000 1.000
44.400 246.000 1.000
44.420 259.000 1.000
44.440 263.000 1.000
44.460 233.000 1.000
44.480 229.000 1.000
44.500 213.000 1.000
44.520 223.000 1.000
44.540 283.000 1.000
44.560 248.000 1.000
44.580 238.000 1.000
44.600 249.000 1.000
44.620 264.000 1.000
44.640 254.000 1.000
44.660 244.000 1.000
44.680 258.000 1.000
44.700 262.000 1.000
44.720 249.000 1.000
44.740 247.000 1.000
44.760 241.000 1.000
44.780 246.000 1.000
44.800 252.000 1.000
44.820 260.000 1.000
44.840 256.000 1.000
44.860 257.000 1.000
44.880 252.000 1.000
44.900 245.000 1.000
44.920 239.000 1.000
44.940 238.000 1.000
44.960 236.000 1.000
44.980 254.000 1.000
45.000 226.000 1.000
45.020 253.000 1.000
45.040 209.000 1.000
45.060 231.000 1.000
45.080 245.000 1.000
45.100 248.000 1.000
45.120 236.000 1.000
45.140 222.000 1.000
45.160 232.000 1.000
45.180 265.000 1.000
45.200 223.000 1.000
45.220 236.000 1.000
45.240 230.000 1.000
45.260 230.000 1.000
45.280 240.000 1.000
45.300 254.000 1.000
45.320 228.000 1.000
45.340 244.000 1.000
45.360 210.000 1.000
45.380 226.000 1.000
45.400 240.000 1.000
45.420 230.000 1.000
45.440 232.000 1.000
45.460 219.000 1.000
45.480 241.000 1.000
45.500 223.000 1.000
45.520 234.000 1.000
45.540 253.000 1.000
45.560 202.000 1.000
45.580 233.000 1.000
45.600 231.000 1.000
45.620 263.000 1.000
45.640 213.000 1.000
45.660 222.000 1.000
45.680 217.000 1.000
45.700 247.000 1.000
45.720 235.000 1.000
45.740 227.000 1.000
45.760 216.000 1.000
45.780 216.000 1.000
45.800 218.000 1.000
45.820 223.000 1.000
45.840 230.000 1.000
45.860 225.000 1.000
45.880 241.000 1.000
45.900 227.000 1.000
45.920 198.000 1.000
45.940 221.000 1.000
45.960 234.000 1.000
45.980 232.000 1.000
46.000 224.000 1.000
46.020 244.000 1.000
46.040 229.000 1.000
46.060 214.000 1.000
46.080 190.000 1.000
46.100 220.000 1.000
46.120 216.000 1.000
46.140 223.000 1.000
46.160 244.000 1.000
46.180 249.000 1.000
46.200 245.000 1.000
46.220 257.000 1.000
46.240 242.000 1.000
46.260 254.000 1.000
46.280 240.000 1.000
46.300 211.000 1.000
46.320 210.000 1.000
46.340 226.000 1.000
46.360 226.000 1.000
46.380 221.000 1.000
46.400 214.000 1.000
46.420 223.000 1.000
46.440 247.000 1.000
46.460 223.000 1.000
46.480 205.000 1.000
46.500 223.000 1.000
46.520 219.000 1.000
46.540 214.000 1.000
46.560 198.000 1.000
46.580 218.000 1.000
46.600 200.000 1.000
46.620 226.000 1.000
46.640 228.000 1.000
46.660 195.000 1.000
46.680 233.000 1.000
46.700 249.000 1.000
46.720 247.000 1.000
46.740 230.000 1.000
46.760 196.000 1.000
46.780 215.000 1.000
46.800 215.000 1.000
46.820 212.000 1.000
46.840 190.000 1.000
46.860 207.000 1.000
46.880 217.000 1.000
46.900 228.000 1.000
46.920 226.000 1.000
46.940 220.000 1.000
46.960 212.000 1.000
46.980 212.000 1.000
47.000 194.000 1.000
47.020 202.000 1.000
47.040 223.000 1.000
47.060 231.000 1.000
47.080 217.000 1.000
47.100 206.000 1.000
47.120 192.000 1.000
47.140 216.000 1.000
47.160 207.000 1.000
47.180 226.000 1.000
47.200 221.000 1.000
47.220 220.000 1.000
47.240 217.000 1.000
47.260 202.000 1.000
47.280 212.000 1.000
47.300 211.000 1.000
47.320 215.000 1.000
47.340 221.000 1.000
47.360 242.000 1.000
47.380 225.000 1.000
47.400 207.000 1.000
47.420 193.000 1.000
47.440 210.000 1.000
47.460 239.000 1.000
47.480 219.000 1.000
47.500 228.000 1.000
47.520 208.000 1.000
47.540 229.000 1.000
47.560 213.000 1.000
47.580 207.000 1.000
47.600 218.000 1.000
47.620 198.000 1.000
47.640 195.000 1.000
47.660 207.000 1.000
47.680 208.000 1.000
47.700 225.000 1.000
47.720 232.000 1.000
47.740 201.000 1.000
47.760 211.000 1.000
47.780 201.000 1.000
47.800 222.000 1.000
47.820 208.000 1.000
47.840 196.000 1.000
47.860 198.000 1.000
47.880 220.000 1.000
47.900 202.000 1.000
47.920 232.000 1.000
47.940 195.000 1.000
47.960 215.000 1.000
47.980 200.000 1.000
48.000 200.000 1.000
48.020 204.000 1.000
48.040 214.000 1.000
48.060 219.000 1.000
48.080 199.000 1.000
48.100 200.000 1.000
48.120 206.000 1.000
48.140 197.000 1.000
48.160 232.000 1.000
48.180 233.000 1.000
48.200 214.000 1.000
48.220 206.000 1.000
48.240 216.000 1.000
48.260 206.000 1.000
48.280 231.000 1.000
48.300 226.000 1.000
48.320 204.000 1.000
48.340 216.000 1.000
48.360 212.000 1.000
48.380 214.000 1.000
48.400 209.000 1.000
48.420 206.000 1.000
48.440 252.000 1.000
48.460 235.000 1.000
48.480 208.000 1.000
48.500 210.000 1.000
48.520 214.000 1.000
48.540 217.000 1.000
48.560 208.000 1.000
48.580 207.000 1.000
48.600 191.000 1.000
48.620 186.000 1.000
48.640 215.000 1.000
48.660 197.000 1.000
48.680 204.000 1.000
48.700 210.000 1.000
48.720 225.000 1.000
48.740 200.000 1.000
48.760 215.000 1.000
48.780 188.000 1.000
48.800 209.000 1.000
48.820 232.000 1.000
48.840 210.000 1.000
48.860 228.000 1.000
48.880 191.000 1.000
48.900 203.000 1.000
48.920 200.000 1.000
48.940 211.000 1.000
48.960 202.000 1.000
48.980 219.000 1.000
49.000 211.000 1.000
49.020 223.000 1.000
49.040 206.000 1.000
49.060 229.000 1.000
49.080 202.000 1.000
49.100 222.000 1.000
49.120 205.000 1.000
49.140 215.000 1.000
49.160 227.000 1.000
49.180 196.000 1.000
49.200 210.000 1.000
49.220 192.000 1.000
49.240 205.000 1.000
49.260 206.000 1.000
49.280 220.000 1.000
49.300 209.000 1.000
49.320 203.000 1.000
49.340 222.000 1.000
49.360 206.000 1.000
49.380 200.000 1.000
49.400 194.000 1.000
49.420 210.000 1.000
49.440 205.000 1.000
49.460 207.000 1.000
49.480 204.000 1.000
49.500 197.000 1.000
49.520 181.000 1.000
49.540 202.000 1.000
49.560 204.000 1.000
49.580 210.000 1.000
49.600 223.000 1.000
49.620 203.000 1.000
49.640 209.000 1.000
49.660 229.000 1.000
49.680 214.000 1.000
49.700 223.000 1.000
49.720 208.000 1.000
49.740 232.000 1.000
49.760 222.000 1.000
49.780 221.000 1.000
49.800 198.000 1.000
49.820 227.000 1.000
49.840 199.000 1.000
49.860 197.000 1.000
49.880 204.000 1.000
49.900 216.000 1.000
49.920 228.000 1.000
49.940 249.000 1.000
49.960 207.000 1.000
49.980 233.000 1.000
50.000 210.000 1.000
50.020 200.000 1.000
50.040 196.000 1.000
50.060 224.000 1.000
50.080 226.000 1.000
50.100 229.000 1.000
50.120 213.000 1.000
50.140 228.000 1.000
50.160 221.000 1.000
50.180 243.000 1.000
50.200 224.000 1.000
50.220 236.000 1.000
50.240 230.000 1.000
50.260 227.000 1.000
50.280 237.000 1.000
50.300 245.000 1.000
50.320 233.000 1.000
50.340 233.000 1.000
50.360 254.000 1.000
50.380 272.000 1.000
50.400 236.000 1.000
50.420 228.000 1.000
50.440 238.000 1.000
50.460 249.000 1.000
50.480 252.000 1.000
50.500 245.000 1.000
50.520 234.000 1.000
50.540 232.000 1.000
50.560 245.000 1.000
50.580 238.000 1.000
50.600 227.000 1.000
50.620 224.000 1.000
50.640 217.000 1.000
50.660 232.000 1.000
50.680 217.000 1.000
50.700 225.000 1.000
50.720 243.000 1.000
50.740 229.000 1.000
50.760 216.000 1.000
50.780 227.000 1.000
50.800 234.000 1.000
50.820 222.000 1.000
50.840 217.000 1.000
50.860 193.000 1.000
50.880 196.000 1.000
50.900 231.000 1.000
50.920 212.000 1.000
50.940 215.000 1.000
50.960 212.000 1.000
50.980 232.000 1.000
51.000 239.000 1.000
51.020 221.000 1.000
51.040 209.000 1.000
51.060 199.000 1.000
51.080 203.000 1.000
51.100 209.000 1.000
51.120 222.000 1.000
51.140 204.000 1.000
51.160 182.000 1.000
51.180 208.000 1.000
51.200 218.000 1.000
51.220 230.000 1.000
51.240 210.000 1.000
51.260 229.000 1.000
51.280 212.000 1.000
51.300 197.000 1.000
51.320 208.000 1.000
51.340 213.000 1.000
51.360 212.000 1.000
51.380 216.000 1.000
51.400 206.000 1.000
51.420 187.000 1.000
51.440 205.000 1.000
51.460 197.000 1.000
51.480 203.000 1.000
51.500 201.000 1.000
51.520 208.000 1.000
51.540 220.000 1.000
51.560 206.000 1.000
51.580 216.000 1.000
51.600 205.000 1.000
51.620 202.000 1.000
51.640 208.000 1.000
51.660 235.000 1.000
51.680 216.000 1.000
51.700 204.000 1.000
51.720 218.000 1.000
51.740 220.000 1.000
51.760 208.000 1.000
51.780 208.000 1.000
51.800 215.000 1.000
51.820 206.000 1.000
51.840 230.000 1.000
51.860 217.000 1.000
51.880 227.000 1.000
51.900 213.000 1.000
51.920 217.000 1.000
51.940 208.000 1.000
51.960 231.000 1.000
51.980 220.000 1.000
52.000 211.000 1.000
52.020 209.000 1.000
52.040 248.000 1.000
52.060 225.000 1.000
52.080 221.000 1.000
52.100 223.000 1.000
52.120 210.000 1.000
52.140 229.000 1.000
52.160 231.000 1.000
52.180 192.000 1.000
52.200 228.000 1.000
52.220 215.000 1.000
52.240 220.000 1.000
52.260 211.000 1.000
52.280 205.000 1.000
52.300 222.000 1.000
52.320 231.000 1.000
52.340 204.000 1.000
52.360 226.000 1.000
52.380 260.000 1.000
52.400 252.000 1.000
52.420 218.000 1.000
52.440 244.000 1.000
52.460 232.000 1.000
52.480 228.000 1.000
52.500 252.000 1.000
52.520 277.000 1.000
52.540 264.000 1.000
52.560 274.000 1.000
52.580 269.000 1.000
52.600 252.000 1.000
52.620 255.000 1.000
52.640 243.000 1.000
52.660 261.000 1.000
52.680 236.000 1.000
52.700 241.000 1.000
52.720 218.000 1.000
52.740 232.000 1.000
52.760 229.000 1.000
52.780 245.000 1.000
52.800 259.000 1.000
52.820 242.000 1.000
52.840 248.000 1.000
52.860 242.000 1.000
52.880 262.000 1.000
52.900 254.000 1.000
52.920 235.000 1.000
52.940 228.000 1.000
52.960 252.000 1.000
52.980 242.000 1.000
53.000 258.000 1.000
53.020 241.000 1.000
53.040 252.000 1.000
53.060 260.000 1.000
53.080 242.000 1.000
53.100 249.000 1.000
53.120 250.000 1.000
53.140 266.000 1.000
53.160 252.000 1.000
53.180 229.000 1.000
53.200 245.000 1.000
53.220 254.000 1.000
53.240 239.000 1.000
53.260 253.000 1.000
53.280 251.000 1.000
53.300 248.000 1.000
53.320 244.000 1.000
53.340 245.000 1.000
53.360 255.000 1.000
53.380 240.000 1.000
53.400 255.000 1.000
53.420 255.000 1.000
53.440 244.000 1.000
53.460 262.000 1.000
53.480 265.000 1.000
53.500 241.000 1.000
53.520 237.000 1.000
53.540 229.000 1.000
53.560 246.000 1.000
53.580 243.000 1.000
53.600 234.000 1.000
53.620 225.000 1.000
53.640 263.000 1.000
53.660 267.000 1.000
53.680 263.000 1.000
53.700 262.000 1.000
53.720 269.000 1.000
53.740 246.000 1.000
53.760 273.000 1.000
53.780 256.000 1.000
53.800 250.000 1.000
53.820 277.000 1.000
53.840 277.000 1.000
53.860 265.000 1.000
53.880 257.000 1.000
53.900 260.000 1.000
53.920 266.000 1.000
53.940 277.000 1.000
53.960 268.000 1.000
53.980 249.000 1.000
54.000 262.000 1.000
54.020 279.000 1.000
54.040 269.000 1.000
54.060 250.000 1.000
54.080 257.000 1.000
54.100 270.000 1.000
54.120 265.000 1.000
54.140 281.000 1.000
54.160 306.000 1.000
54.180 327.000 1.000
54.200 298.000 1.000
54.220 321.000 1.000
54.240 343.000 1.000
54.260 308.000 1.000
54.280 316.000 1.000
54.300 345.000 1.000
54.320 331.000 1.000
54.340 347.000 1.000
54.360 356.000 1.000
54.380 393.000 1.000
54.400 406.000 1.000
54.420 422.000 1.000
54.440 414.000 1.000
54.460 428.000 1.000
54.480 496.000 1.000
54.500 432.000 1.000
54.520 462.000 1.000
54.540 459.000 1.000
54.560 424.000 1.000
54.580 439.000 1.000
54.600 404.000 1.000
54.620 395.000 1.000
54.640 378.000 1.000
54.660 376.000 1.000
54.680 369.000 1.000
54.700 376.000 1.000
54.720 337.000 1.000
54.740 304.000 1.000
54.760 287.000 1.000
54.780 277.000 1.000
54.800 256.000 1.000
54.820 260.000 1.000
54.840 240.000 1.000
54.860 249.000 1.000
54.880 238.000 1.000
54.900 218.000 1.000
54.920 196.000 1.000
54.940 218.000 1.000
54.960 218.000 1.000
54.980 215.000 1.000
55.000 221.000 1.000
55.020 203.000 1.000
55.040 220.000 1.000
55.060 213.000 1.000
55.080 206.000 1.000
55.100 195.000 1.000
55.120 200.000 1.000
55.140 193.000 1.000
55.160 205.000 1.000
55.180 181.000 1.000
55.200 199.000 1.000
55.220 204.000 1.000
55.240 198.000 1.000
55.260 183.000 1.000
55.280 184.000 1.000
55.300 185.000 1.000
55.320 183.000 1.000
55.340 190.000 1.000
55.360 190.000 1.000
55.380 185.000 1.000
55.400 201.000 1.000
55.420 189.000 1.000
55.440 204.000 1.000
55.460 201.000 1.000
55.480 191.000 1.000
55.500 186.000 1.000
55.520 186.000 1.000
55.540 180.000 1.000
55.560 180.000 1.000
55.580 199.000 1.000
55.600 194.000 1.000
55.620 190.000 1.000
55.640 185.000 1.000
55.660 171.000 1.000
55.680 163.000 1.000
55.700 192.000 1.000
55.720 180.000 1.000
55.740 204.000 1.000
55.760 185.000 1.000
55.780 186.000 1.000
55.800 186.000 1.000
55.820 181.000 1.000
55.840 176.000 1.000
55.860 178.000 1.000
55.880 181.000 1.000
55.900 195.000 1.000
55.920 182.000 1.000
55.940 182.000 1.000
55.960 184.000 1.000
55.980 203.000 1.000
56.000 184.000 1.000
56.020 175.000 1.000
56.040 181.000 1.000
56.060 185.000 1.000
56.080 189.000 1.000
56.100 188.000 1.000
56.120 183.000 1.000
56.140 190.000 1.000
56.160 166.000 1.000
56.180 180.000 1.000
56.200 184.000 1.000
56.220 171.000 1.000
56.240 183.000 1.000
56.260 191.000 1.000
56.280 177.000 1.000
56.300 185.000 1.000
56.320 180.000 1.000
56.340 164.000 1.000
56.360 161.000 1.000
56.380 189.000 1.000
56.400 177.000 1.000
56.420 189.000 1.000
56.440 168.000 1.000
56.460 189.000 1.000
56.480 176.000 1.000
56.500 164.000 1.000
56.520 178.000 1.000
56.540 184.000 1.000
56.560 208.000 1.000
56.580 192.000 1.000
56.600 183.000 1.000
56.620 192.000 1.000
56.640 172.000 1.000
56.660 153.000 1.000
56.680 167.000 1.000
56.700 165.000 1.000
56.720 166.000 1.000
56.740 169.000 1.000
56.760 177.000 1.000
56.780 182.000 1.000
56.800 208.000 1.000
56.820 193.000 1.000
56.840 177.000 1.000
56.860 179.000 1.000
56.880 175.000 1.000
56.900 180.000 1.000
56.920 171.000 1.000
56.940 167.000 1.000
56.960 164.000 1.000
56.980 195.000 1.000
57.000 195.000 1.000
57.020 191.000 1.000
57.040 186.000 1.000
57.060 186.000 1.000
57.080 174.000 1.000
57.100 183.000 1.000
57.120 169.000 1.000
57.140 168.000 1.000
57.160 170.000 1.000
57.180 184.000 1.000
57.200 164.000 1.000
57.220 168.000 1.000
57.240 181.000 1.000
57.260 161.000 1.000
57.280 173.000 1.000
57.300 182.000 1.000
57.320 192.000 1.000
57.340 191.000 1.000
57.360 168.000 1.000
57.380 165.000 1.000
57.400 174.000 1.000
57.420 189.000 1.000
57.440 200.000 1.000
57.460 172.000 1.000
57.480 189.000 1.000
57.500 198.000 1.000
57.520 184.000 1.000
57.540 186.000 1.000
57.560 188.000 1.000
57.580 174.000 1.000
57.600 179.000 1.000
57.620 181.000 1.000
57.640 190.000 1.000
57.660 187.000 1.000
57.680 157.000 1.000
57.700 173.000 1.000
57.720 161.000 1.000
57.740 163.000 1.000
57.760 168.000 1.000
57.780 157.000 1.000
57.800 154.000 1.000
57.820 184.000 1.000
57.840 164.000 1.000
57.860 164.000 1.000
57.880 177.000 1.000
57.900 182.000 1.000
57.920 184.000 1.000
57.940 173.000 1.000
57.960 186.000 1.000
57.980 174.000 1.000
58.000 149.000 1.000
58.020 169.000 1.000
58.040 185.000 1.000
58.060 173.000 1.000
58.080 167.000 1.000
58.100 171.000 1.000
58.120 167.000 1.000
58.140 169.000 1.000
58.160 181.000 1.000
58.180 157.000 1.000
58.200 178.000 1.000
58.220 175.000 1.000
58.240 171.000 1.000
58.260 168.000 1.000
58.280 174.000 1.000
58.300 178.000 1.000
58.320 187.000 1.000
58.340 192.000 1.000
58.360 175.000 1.000
58.380 181.000 1.000
58.400 160.000 1.000
58.420 170.000 1.000
58.440 168.000 1.000
58.460 180.000 1.000
58.480 163.000 1.000
58.500 142.000 1.000
58.520 158.000 1.000
58.540 173.000 1.000
58.560 176.000 1.000
58.580 185.000 1.000
58.600 171.000 1.000
58.620 157.000 1.000
58.640 153.000 1.000
58.660 156.000 1.000
58.680 173.000 1.000
58.700 176.000 1.000
58.720 180.000 1.000
58.740 186.000 1.000
58.760 182.000 1.000
58.780 166.000 1.000
58.800 179.000 1.000
58.820 163.000 1.000
58.840 170.000 1.000
58.860 167.000 1.000
58.880 162.000 1.000
58.900 155.000 1.000
58.920 160.000 1.000
58.940 165.000 1.000
58.960 172.000 1.000
58.980 179.000 1.000
59.000 184.000 1.000
59.020 158.000 1.000
59.040 173.000 1.000
59.060 186.000 1.000
59.080 189.000 1.000
59.100 182.000 1.000
59.120 183.000 1.000
59.140 170.000 1.000
59.160 190.000 1.000
59.180 183.000 1.000
59.200 178.000 1.000
59.220 164.000 1.000
59.240 181.000 1.000
59.260 187.000 1.000
59.280 169.000 1.000
59.300 167.000 1.000
59.320 168.000 1.000
59.340 164.000 1.000
59.360 175.000 1.000
59.380 196.000 1.000
59.400 204.000 1.000
59.420 164.000 1.000
59.440 172.000 1.000
59.460 173.000 1.000
59.480 160.000 1.000
59.500 170.000 1.000
59.520 179.000 1.000
59.540 184.000 1.000
59.560 182.000 1.000
59.580 174.000 1.000
59.600 170.000 1.000
59.620 168.000 1.000
59.640 169.000 1.000
59.660 173.000 1.000
59.680 171.000 1.000
59.700 170.000 1.000
59.720 187.000 1.000
59.740 161.000 1.000
59.760 177.000 1.000
59.780 150.000 1.000
59.800 176.000 1.000
59.820 174.000 1.000
59.840 170.000 1.000
59.860 170.000 1.000
59.880 175.000 1.000
59.900 169.000 1.000
59.920 153.000 1.000
59.940 176.000 1.000
59.960 156.000 1.000
59.980 170.000 1.000
60.000 167.000 1.000
60.020 154.000 1.000
60.040 151.000 1.000
60.060 155.000 1.000
60.080 186.000 1.000
60.100 179.000 1.000
60.120 184.000 1.000
60.140 166.000 1.000
60.160 149.000 1.000
60.180 167.000 1.000
60.200 163.000 1.000
60.220 177.000 1.000
60.240 163.000 1.000
60.260 173.000 1.000
60.280 174.000 1.000
60.300 181.000 1.000
60.320 169.000 1.000
60.340 167.000 1.000
60.360 176.000 1.000
60.380 165.000 1.000
60.400 169.000 1.000
60.420 162.000 1.000
60.440 187.000 1.000
60.460 183.000 1.000
60.480 186.000 1.000
60.500 190.000 1.000
60.520 176.000 1.000
60.540 183.000 1.000
60.560 172.000 1.000
60.580 181.000 1.000
60.600 189.000 1.000
60.620 182.000 1.000
60.640 167.000 1.000
60.660 177.000 1.000
60.680 177.000 1.000
60.700 198.000 1.000
60.720 197.000 1.000
60.740 183.000 1.000
60.760 176.000 1.000
60.780 185.000 1.000
60.800 198.000 1.000
60.820 195.000 1.000
60.840 191.000 1.000
60.860 197.000 1.000
60.880 204.000 1.000
60.900 190.000 1.000
60.920 198.000 1.000
60.940 203.000 1.000
60.960 209.000 1.000
60.980 206.000 1.000
61.000 210.000 1.000
61.020 202.000 1.000
61.040 222.000 1.000
61.060 224.000 1.000
61.080 227.000 1.000
61.100 217.000 1.000
61.120 251.000 1.000
61.140 252.000 1.000
61.160 248.000 1.000
61.180 283.000 1.000
61.200 297.000 1.000
61.220 315.000 1.000
61.240 332.000 1.000
61.260 348.000 1.000
61.280 357.000 1.000
61.300 399.000 1.000
61.320 416.000 1.000
61.340 446.000 1.000
61.360 432.000 1.000
61.380 449.000 1.000
61.400 451.000 1.000
61.420 471.000 1.000
61.440 446.000 1.000
61.460 425.000 1.000
61.480 418.000 1.000
61.500 438.000 1.000
61.520 445.000 1.000
61.540 433.000 1.000
61.560 382.000 1.000
61.580 368.000 1.000
61.600 351.000 1.000
61.620 332.000 1.000
61.640 323.000 1.000
61.660 336.000 1.000
61.680 296.000 1.000
61.700 278.000 1.000
61.720 273.000 1.000
61.740 262.000 1.000
61.760 255.000 1.000
61.780 227.000 1.000
61.800 232.000 1.000
61.820 229.000 1.000
61.840 224.000 1.000
61.860 219.000 1.000
61.880 202.000 1.000
61.900 197.000 1.000
61.920 190.000 1.000
61.940 190.000 1.000
61.960 185.000 1.000
61.980 168.000 1.000
62.000 184.000 1.000
62.020 177.000 1.000
62.040 179.000 1.000
62.060 165.000 1.000
62.080 174.000 1.000
62.100 197.000 1.000
62.120 182.000 1.000
62.140 188.000 1.000
62.160 169.000 1.000
62.180 162.000 1.000
62.200 167.000 1.000
62.220 164.000 1.000
62.240 152.000 1.000
62.260 172.000 1.000
62.280 166.000 1.000
62.300 170.000 1.000
62.320 170.000 1.000
62.340 150.000 1.000
62.360 175.000 1.000
62.380 172.000 1.000
62.400 175.000 1.000
62.420 177.000 1.000
62.440 173.000 1.000
62.460 169.000 1.000
62.480 166.000 1.000
62.500 166.000 1.000
62.520 160.000 1.000
62.540 169.000 1.000
62.560 157.000 1.000
62.580 164.000 1.000
62.600 176.000 1.000
62.620 154.000 1.000
62.640 188.000 1.000
62.660 183.000 1.000
62.680 162.000 1.000
62.700 170.000 1.000
62.720 164.000 1.000
62.740 176.000 1.000
62.760 165.000 1.000
62.780 169.000 1.000
62.800 157.000 1.000
62.820 156.000 1.000
62.840 161.000 1.000
62.860 150.000 1.000
62.880 174.000 1.000
62.900 159.000 1.000
62.920 154.000 1.000
62.940 166.000 1.000
62.960 159.000 1.000
62.980 167.000 1.000
63.000 161.000 1.000
63.020 160.000 1.000
63.040 172.000 1.000
63.060 177.000 1.000
63.080 182.000 1.000
63.100 185.000 1.000
63.120 172.000 1.000
63.140 168.000 1.000
63.160 134.000 1.000
63.180 148.000 1.000
63.200 161.000 1.000
63.220 172.000 1.000
63.240 163.000 1.000
63.260 160.000 1.000
63.280 172.000 1.000
63.300 158.000 1.000
63.320 129.000 1.000
63.340 155.000 1.000
63.360 160.000 1.000
63.380 173.000 1.000
63.400 164.000 1.000
63.420 166.000 1.000
63.440 162.000 1.000
63.460 153.000 1.000
63.480 180.000 1.000
63.500 163.000 1.000
63.520 152.000 1.000
63.540 170.000 1.000
63.560 159.000 1.000
63.580 140.000 1.000
63.600 187.000 1.000
63.620 166.000 1.000
63.640 160.000 1.000
63.660 153.000 1.000
63.680 172.000 1.000
63.700 150.000 1.000
63.720 153.000 1.000
63.740 149.000 1.000
63.760 144.000 1.000
63.780 148.000 1.000
63.800 148.000 1.000
63.820 164.000 1.000
63.840 152.000 1.000
63.860 154.000 1.000
63.880 161.000 1.000
63.900 167.000 1.000
63.920 168.000 1.000
63.940 155.000 1.000
63.960 147.000 1.000
63.980 161.000 1.000
64.000 151.000 1.000
64.020 144.000 1.000
64.040 147.000 1.000
64.060 171.000 1.000
64.080 151.000 1.000
64.100 151.000 1.000
64.120 161.000 1.000
64.140 168.000 1.000
64.160 154.000 1.000
64.180 157.000 1.000
64.200 171.000 1.000
64.220 184.000 1.000
64.240 176.000 1.000
64.260 171.000 1.000
64.280 135.000 1.000
64.300 142.000 1.000
64.320 159.000 1.000
64.340 165.000 1.000
64.360 170.000 1.000
64.380 165.000 1.000
64.400 176.000 1.000
64.420 164.000 1.000
64.440 149.000 1.000
64.460 144.000 1.000
64.480 145.000 1.000
64.500 150.000 1.000
64.520 156.000 1.000
64.540 169.000 1.000
64.560 161.000 1.000
64.580 167.000 1.000
64.600 149.000 1.000
64.620 152.000 1.000
64.640 177.000 1.000
64.660 168.000 1.000
64.680 171.000 1.000
64.700 150.000 1.000
64.720 164.000 1.000
64.740 158.000 1.000
64.760 151.000 1.000
64.780 152.000 1.000
64.800 147.000 1.000
64.820 145.000 1.000
64.840 150.000 1.000
64.860 152.000 1.000
64.880 147.000 1.000
64.900 170.000 1.000
64.920 152.000 1.000
64.940 152.000 1.000
64.960 143.000 1.000
64.980 143.000 1.000
65.000 138.000 1.000
65.020 148.000 1.000
65.040 169.000 1.000
65.060 157.000 1.000
65.080 141.000 1.000
65.100 144.000 1.000
65.120 162.000 1.000
65.140 147.000 1.000
65.160 140.000 1.000
65.180 140.000 1.000
65.200 164.000 1.000
65.220 173.000 1.000
65.240 172.000 1.000
65.260 169.000 1.000
65.280 156.000 1.000
65.300 174.000 1.000
65.320 183.000 1.000
65.340 142.000 1.000
65.360 161.000 1.000
65.380 143.000 1.000
65.400 144.000 1.000
65.420 155.000 1.000
65.440 163.000 1.000
65.460 134.000 1.000
65.480 150.000 1.000
65.500 147.000 1.000
65.520 174.000 1.000
65.540 166.000 1.000
65.560 144.000 1.000
65.580 138.000 1.000
65.600 162.000 1.000
65.620 155.000 1.000
65.640 150.000 1.000
65.660 153.000 1.000
65.680 173.000 1.000
65.700 154.000 1.000
65.720 143.000 1.000
65.740 139.000 1.000
65.760 173.000 1.000
65.780 166.000 1.000
65.800 141.000 1.000
65.820 153.000 1.000
65.840 152.000 1.000
65.860 160.000 1.000
65.880 156.000 1.000
65.900 152.000 1.000
65.920 148.000 1.000
65.940 148.000 1.000
65.960 138.000 1.000
65.980 144.000 1.000
66.000 139.000 1.000
66.020 153.000 1.000
66.040 171.000 1.000
66.060 167.000 1.000
66.080 146.000 1.000
66.100 148.000 1.000
66.120 141.000 1.000
66.140 125.000 1.000
66.160 149.000 1.000
66.180 159.000 1.000
66.200 159.000 1.000
66.220 142.000 1.000
66.240 143.000 1.000
66.260 157.000 1.000
66.280 162.000 1.000
66.300 153.000 1.000
66.320 158.000 1.000
66.340 149.000 1.000
66.360 154.000 1.000
66.380 146.000 1.000
66.400 133.000 1.000
66.420 150.000 1.000
66.440 168.000 1.000
66.460 151.000 1.000
66.480 162.000 1.000
66.500 138.000 1.000
66.520 141.000 1.000
66.540 130.000 1.000
66.560 166.000 1.000
66.580 158.000 1.000
66.600 158.000 1.000
66.620 151.000 1.000
66.640 150.000 1.000
66.660 161.000 1.000
66.680 162.000 1.000
66.700 178.000 1.000
66.720 161.000 1.000
66.740 155.000 1.000
66.760 154.000 1.000
66.780 158.000 1.000
66.800 138.000 1.000
66.820 149.000 1.000
66.840 169.000 1.000
66.860 145.000 1.000
66.880 156.000 1.000
66.900 153.000 1.000
66.920 150.000 1.000
66.940 144.000 1.000
66.960 157.000 1.000
66.980 157.000 1.000
67.000 153.000 1.000
67.020 151.000 1.000
67.040 152.000 1.000
67.060 162.000 1.000
67.080 149.000 1.000
67.100 147.000 1.000
67.120 167.000 1.000
67.140 148.000 1.000
67.160 145.000 1.000
67.180 137.000 1.000
67.200 158.000 1.000
67.220 145.000 1.000
67.240 163.000 1.000
67.260 161.000 1.000
67.280 134.000 1.000
67.300 157.000 1.000
67.320 142.000 1.000
67.340 139.000 1.000
67.360 145.000 1.000
67.380 148.000 1.000
67.400 150.000 1.000
67.420 150.000 1.000
67.440 142.000 1.000
67.460 144.000 1.000
67.480 151.000 1.000
67.500 157.000 1.000
67.520 142.000 1.000
67.540 151.000 1.000
67.560 137.000 1.000
67.580 146.000 1.000
67.600 150.000 1.000
67.620 160.000 1.000
67.640 154.000 1.000
67.660 145.000 1.000
67.680 147.000 1.000
67.700 134.000 1.000
67.720 134.000 1.000
67.740 147.000 1.000
67.760 137.000 1.000
67.780 157.000 1.000
67.800 152.000 1.000
67.820 145.000 1.000
67.840 129.000 1.000
67.860 144.000 1.000
67.880 144.000 1.000
67.900 159.000 1.000
67.920 142.000 1.000
67.940 131.000 1.000
67.960 160.000 1.000
67.980 151.000 1.000
68.000 161.000 1.000
68.020 153.000 1.000
68.040 134.000 1.000
68.060 141.000 1.000
68.080 143.000 1.000
68.100 150.000 1.000
68.120 157.000 1.000
68.140 147.000 1.000
68.160 158.000 1.000
68.180 166.000 1.000
68.200 156.000 1.000
68.220 147.000 1.000
68.240 136.000 1.000
68.260 156.000 1.000
68.280 154.000 1.000
68.300 157.000 1.000
68.320 150.000 1.000
68.340 143.000 1.000
68.360 136.000 1.000
68.380 133.000 1.000
68.400 126.000 1.000
68.420 148.000 1.000
68.440 162.000 1.000
68.460 156.000 1.000
68.480 150.000 1.000
68.500 149.000 1.000
68.520 139.000 1.000
68.540 131.000 1.000
68.560 137.000 1.000
68.580 135.000 1.000
68.600 123.000 1.000
68.620 144.000 1.000
68.640 133.000 1.000
68.660 131.000 1.000
68.680 120.000 1.000
68.700 150.000 1.000
68.720 140.000 1.000
68.740 138.000 1.000
68.760 134.000 1.000
68.780 154.000 1.000
68.800 156.000 1.000
68.820 144.000 1.000
68.840 153.000 1.000
68.860 140.000 1.000
68.880 137.000 1.000
68.900 160.000 1.000
68.920 179.000 1.000
68.940 156.000 1.000
68.960 147.000 1.000
68.980 161.000 1.000
69.000 154.000 1.000
69.020 156.000 1.000
69.040 143.000 1.000
69.060 126.000 1.000
69.080 145.000 1.000
69.100 158.000 1.000
69.120 159.000 1.000
69.140 149.000 1.000
69.160 142.000 1.000
69.180 138.000 1.000
69.200 158.000 1.000
69.220 156.000 1.000
69.240 151.000 1.000
69.260 154.000 1.000
69.280 165.000 1.000
69.300 146.000 1.000
69.320 145.000 1.000
69.340 136.000 1.000
69.360 131.000 1.000
69.380 136.000 1.000
69.400 156.000 1.000
69.420 165.000 1.000
69.440 147.000 1.000
69.460 143.000 1.000
69.480 149.000 1.000
69.500 133.000 1.000
69.520 156.000 1.000
69.540 158.000 1.000
69.560 154.000 1.000
69.580 139.000 1.000
69.600 143.000 1.000
69.620 142.000 1.000
69.640 136.000 1.000
69.660 143.000 1.000
69.680 141.000 1.000
69.700 150.000 1.000
69.720 153.000 1.000
69.740 162.000 1.000
69.760 153.000 1.000
69.780 148.000 1.000
69.800 160.000 1.000
69.820 132.000 1.000
69.840 156.000 1.000
69.860 139.000 1.000
69.880 142.000 1.000
69.900 153.000 1.000
69.920 162.000 1.000
69.940 157.000 1.000
69.960 168.000 1.000
69.980 156.000 1.000
70.000 158.000 1.000
70.020 144.000 1.000
70.040 150.000 1.000
70.060 152.000 1.000
70.080 141.000 1.000
70.100 148.000 1.000
70.120 140.000 1.000
70.140 156.000 1.000
70.160 154.000 1.000
70.180 153.000 1.000
70.200 145.000 1.000
70.220 150.000 1.000
70.240 144.000 1.000
70.260 148.000 1.000
70.280 149.000 1.000
70.300 153.000 1.000
70.320 135.000 1.000
70.340 138.000 1.000
70.360 155.000 1.000
70.380 147.000 1.000
70.400 152.000 1.000
70.420 165.000 1.000
70.440 139.000 1.000
70.460 139.000 1.000
70.480 170.000 1.000
70.500 142.000 1.000
70.520 123.000 1.000
70.540 141.000 1.000
70.560 135.000 1.000
70.580 128.000 1.000
70.600 140.000 1.000
70.620 148.000 1.000
70.640 135.000 1.000
70.660 145.000 1.000
70.680 155.000 1.000
70.700 172.000 1.000
70.720 157.000 1.000
70.740 153.000 1.000
70.760 147.000 1.000
70.780 142.000 1.000
70.800 136.000 1.000
70.820 152.000 1.000
70.840 162.000 1.000
70.860 141.000 1.000
70.880 145.000 1.000
70.900 134.000 1.000
70.920 147.000 1.000
70.940 139.000 1.000
70.960 150.000 1.000
70.980 145.000 1.000
71.000 146.000 1.000
71.020 139.000 1.000
71.040 144.000 1.000
71.060 124.000 1.000
71.080 128.000 1.000
71.100 140.000 1.000
71.120 137.000 1.000
71.140 140.000 1.000
71.160 136.000 1.000
71.180 141.000 1.000
71.200 140.000 1.000
71.220 152.000 1.000
71.240 129.000 1.000
71.260 135.000 1.000
71.280 150.000 1.000
71.300 139.000 1.000
71.320 131.000 1.000
71.340 153.000 1.000
71.360 144.000 1.000
71.380 152.000 1.000
71.400 146.000 1.000
71.420 126.000 1.000
71.440 140.000 1.000
71.460 156.000 1.000
71.480 131.000 1.000
71.500 151.000 1.000
71.520 153.000 1.000
71.540 166.000 1.000
71.560 166.000 1.000
71.580 147.000 1.000
71.600 132.000 1.000
71.620 138.000 1.000
71.640 170.000 1.000
71.660 152.000 1.000
71.680 134.000 1.000
71.700 151.000 1.000
71.720 147.000 1.000
71.740 150.000 1.000
71.760 151.000 1.000
71.780 150.000 1.000
71.800 151.000 1.000
71.820 173.000 1.000
71.840 136.000 1.000
71.860 151.000 1.000
71.880 154.000 1.000
71.900 141.000 1.000
71.920 122.000 1.000
71.940 153.000 1.000
71.960 153.000 1.000
71.980 147.000 1.000
72.000 150.000 1.000
72.020 148.000 1.000
72.040 154.000 1.000
72.060 133.000 1.000
72.080 147.000 1.000
72.100 147.000 1.000
72.120 146.000 1.000
72.140 152.000 1.000
72.160 168.000 1.000
72.180 136.000 1.000
72.200 152.000 1.000
72.220 169.000 1.000
72.240 154.000 1.000
72.260 142.000 1.000
72.280 165.000 1.000
72.300 154.000 1.000
72.320 135.000 1.000
72.340 155.000 1.000
72.360 160.000 1.000
72.380 165.000 1.000
72.400 150.000 1.000
72.420 139.000 1.000
72.440 152.000 1.000
72.460 154.000 1.000
72.480 143.000 1.000
72.500 145.000 1.000
72.520 152.000 1.000
72.540 149.000 1.000
72.560 152.000 1.000
72.580 175.000 1.000
72.600 167.000 1.000
72.620 158.000 1.000
72.640 163.000 1.000
72.660 157.000 1.000
72.680 156.000 1.000
72.700 145.000 1.000
72.720 154.000 1.000
72.740 187.000 1.000
72.760 162.000 1.000
72.780 155.000 1.000
72.800 142.000 1.000
72.820 156.000 1.000
72.840 178.000 1.000
72.860 175.000 1.000
72.880 171.000 1.000
72.900 175.000 1.000
72.920 157.000 1.000
72.940 171.000 1.000
72.960 147.000 1.000
72.980 163.000 1.000
73.000 159.000 1.000
73.020 173.000 1.000
73.040 172.000 1.000
73.060 177.000 1.000
73.080 174.000 1.000
73.100 167.000 1.000
73.120 183.000 1.000
73.140 207.000 1.000
73.160 172.000 1.000
73.180 177.000 1.000
73.200 178.000 1.000
73.220 189.000 1.000
73.240 197.000 1.000
73.260 224.000 1.000
73.280 214.000 1.000
73.300 228.000 1.000
73.320 230.000 1.000
73.340 214.000 1.000
73.360 225.000 1.000
73.380 249.000 1.000
73.400 234.000 1.000
73.420 261.000 1.000
73.440 276.000 1.000
73.460 263.000 1.000
73.480 280.000 1.000
73.500 296.000 1.000
73.520 295.000 1.000
73.540 316.000 1.000
73.560 293.000 1.000
73.580 290.000 1.000
73.600 287.000 1.000
73.620 298.000 1.000
73.640 324.000 1.000
73.660 278.000 1.000
73.680 262.000 1.000
73.700 275.000 1.000
73.720 263.000 1.000
73.740 279.000 1.000
73.760 276.000 1.000
73.780 255.000 1.000
73.800 249.000 1.000
73.820 253.000 1.000
73.840 239.000 1.000
73.860 252.000 1.000
73.880 207.000 1.000
73.900 214.000 1.000
73.920 216.000 1.000
73.940 197.000 1.000
73.960 191.000 1.000
73.980 223.000 1.000
74.000 213.000 1.000
74.020 217.000 1.000
74.040 181.000 1.000
74.060 184.000 1.000
74.080 170.000 1.000
74.100 187.000 1.000
74.120 188.000 1.000
74.140 202.000 1.000
74.160 196.000 1.000
74.180 200.000 1.000
74.200 186.000 1.000
74.220 180.000 1.000
74.240 186.000 1.000
74.260 168.000 1.000
74.280 164.000 1.000
74.300 162.000 1.000
74.320 179.000 1.000
74.340 177.000 1.000
74.360 165.000 1.000
74.380 161.000 1.000
74.400 163.000 1.000
74.420 155.000 1.000
74.440 167.000 1.000
74.460 173.000 1.000
74.480 179.000 1.000
74.500 158.000 1.000
74.520 176.000 1.000
74.540 163.000 1.000
74.560 148.000 1.000
74.580 159.000 1.000
74.600 169.000 1.000
74.620 160.000 1.000
74.640 164.000 1.000
74.660 151.000 1.000
74.680 147.000 1.000
74.700 155.000 1.000
74.720 157.000 1.000
74.740 158.000 1.000
74.760 146.000 1.000
74.780 145.000 1.000
74.800 160.000 1.000
74.820 146.000 1.000
74.840 147.000 1.000
74.860 132.000 1.000
74.880 147.000 1.000
74.900 141.000 1.000
74.920 150.000 1.000
74.940 130.000 1.000
74.960 140.000 1.000
74.980 137.000 1.000
75.000 141.000 1.000
75.020 152.000 1.000
75.040 164.000 1.000
75.060 156.000 1.000
75.080 135.000 1.000
75.100 144.000 1.000
75.120 158.000 1.000
75.140 155.000 1.000
75.160 150.000 1.000
75.180 150.000 1.000
75.200 146.000 1.000
75.220 141.000 1.000
75.240 145.000 1.000
75.260 128.000 1.000
75.280 145.000 1.000
75.300 125.000 1.000
75.320 118.000 1.000
75.340 138.000 1.000
75.360 148.000 1.000
75.380 161.000 1.000
75.400 158.000 1.000
75.420 122.000 1.000
75.440 162.000 1.000
75.460 153.000 1.000
75.480 144.000 1.000
75.500 147.000 1.000
75.520 136.000 1.000
75.540 134.000 1.000
75.560 146.000 1.000
75.580 141.000 1.000
75.600 143.000 1.000
75.620 156.000 1.000
75.640 150.000 1.000
75.660 136.000 1.000
75.680 136.000 1.000
75.700 134.000 1.000
75.720 160.000 1.000
75.740 120.000 1.000
75.760 152.000 1.000
75.780 142.000 1.000
75.800 118.000 1.000
75.820 159.000 1.000
75.840 142.000 1.000
75.860 136.000 1.000
75.880 136.000 1.000
75.900 158.000 1.000
75.920 149.000 1.000
75.940 126.000 1.000
75.960 147.000 1.000
75.980 137.000 1.000
76.000 144.000 1.000
76.020 131.000 1.000
76.040 129.000 1.000
76.060 135.000 1.000
76.080 137.000 1.000
76.100 143.000 1.000
76.120 150.000 1.000
76.140 155.000 1.000
76.160 161.000 1.000
76.180 141.000 1.000
76.200 149.000 1.000
76.220 144.000 1.000
76.240 135.000 1.000
76.260 150.000 1.000
76.280 141.000 1.000
76.300 138.000 1.000
76.320 145.000 1.000
76.340 162.000 1.000
76.360 143.000 1.000
76.380 148.000 1.000
76.400 138.000 1.000
76.420 144.000 1.000
76.440 146.000 1.000
76.460 131.000 1.000
76.480 166.000 1.000
76.500 145.000 1.000
76.520 139.000 1.000
76.540 151.000 1.000
76.560 162.000 1.000
76.580 145.000 1.000
76.600 130.000 1.000
76.620 137.000 1.000
76.640 146.000 1.000
76.660 145.000 1.000
76.680 133.000 1.000
76.700 153.000 1.000
76.720 169.000 1.000
76.740 152.000 1.000
76.760 143.000 1.000
76.780 173.000 1.000
76.800 149.000 1.000
76.820 152.000 1.000
76.840 151.000 1.000
76.860 145.000 1.000
76.880 164.000 1.000
76.900 160.000 1.000
76.920 155.000 1.000
76.940 142.000 1.000
76.960 140.000 1.000
76.980 137.000 1.000
77.000 152.000 1.000
77.020 155.000 1.000
77.040 159.000 1.000
77.060 159.000 1.000
77.080 159.000 1.000
77.100 156.000 1.000
77.120 149.000 1.000
77.140 166.000 1.000
77.160 154.000 1.000
77.180 143.000 1.000
77.200 171.000 1.000
77.220 204.000 1.000
77.240 166.000 1.000
77.260 155.000 1.000
77.280 169.000 1.000
77.300 180.000 1.000
77.320 169.000 1.000
77.340 174.000 1.000
77.360 170.000 1.000
77.380 169.000 1.000
77.400 160.000 1.000
77.420 188.000 1.000
77.440 184.000 1.000
77.460 165.000 1.000
77.480 191.000 1.000
77.500 182.000 1.000
77.520 181.000 1.000
77.540 174.000 1.000
77.560 152.000 1.000
77.580 171.000 1.000
77.600 180.000 1.000
77.620 173.000 1.000
77.640 182.000 1.000
77.660 181.000 1.000
77.680 175.000 1.000
77.700 165.000 1.000
77.720 158.000 1.000
77.740 163.000 1.000
77.760 172.000 1.000
77.780 159.000 1.000
77.800 167.000 1.000
77.820 166.000 1.000
77.840 169.000 1.000
77.860 159.000 1.000
77.880 167.000 1.000
77.900 148.000 1.000
77.920 141.000 1.000
77.940 154.000 1.000
77.960 149.000 1.000
77.980 130.000 1.000
78.000 161.000 1.000
78.020 157.000 1.000
78.040 141.000 1.000
78.060 141.000 1.000
78.080 140.000 1.000
78.100 140.000 1.000
78.120 161.000 1.000
78.140 157.000 1.000
78.160 136.000 1.000
78.180 148.000 1.000
78.200 152.000 1.000
78.220 140.000 1.000
78.240 141.000 1.000
78.260 147.000 1.000
78.280 153.000 1.000
78.300 157.000 1.000
78.320 147.000 1.000
78.340 155.000 1.000
78.360 155.000 1.000
78.380 142.000 1.000
78.400 162.000 1.000
78.420 147.000 1.000
78.440 144.000 1.000
78.460 142.000 1.000
78.480 150.000 1.000
78.500 169.000 1.000
78.520 144.000 1.000
78.540 158.000 1.000
78.560 160.000 1.000
78.580 151.000 1.000
78.600 132.000 1.000
78.620 145.000 1.000
78.640 153.000 1.000
78.660 147.000 1.000
78.680 136.000 1.000
78.700 152.000 1.000
78.720 138.000 1.000
78.740 130.000 1.000
78.760 146.000 1.000
78.780 148.000 1.000
78.800 139.000 1.000
78.820 152.000 1.000
78.840 135.000 1.000
78.860 163.000 1.000
78.880 146.000 1.000
78.900 149.000 1.000
78.920 142.000 1.000
78.940 165.000 1.000
78.960 150.000 1.000
78.980 151.000 1.000
79.000 147.000 1.000
79.020 129.000 1.000
79.040 112.000 1.000
79.060 142.000 1.000
79.080 143.000 1.000
79.100 152.000 1.000
79.120 152.000 1.000
79.140 147.000 1.000
79.160 158.000 1.000
79.180 169.000 1.000
79.200 150.000 1.000
79.220 136.000 1.000
79.240 136.000 1.000
79.260 141.000 1.000
79.280 155.000 1.000
79.300 146.000 1.000
79.320 151.000 1.000
79.340 131.000 1.000
79.360 154.000 1.000
79.380 126.000 1.000
79.400 136.000 1.000
79.420 149.000 1.000
79.440 130.000 1.000
79.460 150.000 1.000
79.480 138.000 1.000
79.500 149.000 1.000
79.520 149.000 1.000
79.540 137.000 1.000
79.560 134.000 1.000
79.580 123.000 1.000
79.600 140.000 1.000
79.620 144.000 1.000
79.640 140.000 1.000
79.660 143.000 1.000
79.680 160.000 1.000
79.700 147.000 1.000
79.720 133.000 1.000
79.740 144.000 1.000
79.760 145.000 1.000
79.780 143.000 1.000
79.800 154.000 1.000
79.820 132.000 1.000
79.840 137.000 1.000
79.860 136.000 1.000
79.880 140.000 1.000
79.900 142.000 1.000
79.920 127.000 1.000
79.940 139.000 1.000
79.960 121.000 1.000
79.980 138.000 1.000
80.000 136.000 1.000
80.020 138.000 1.000
80.040 168.000 1.000
80.060 137.000 1.000
80.080 137.000 1.000
80.100 158.000 1.000
80.120 126.000 1.000
80.140 157.000 1.000
80.160 130.000 1.000
80.180 146.000 1.000
80.200 133.000 1.000
80.220 120.000 1.000
80.240 152.000 1.000
80.260 140.000 1.000
80.280 152.000 1.000
80.300 143.000 1.000
80.320 149.000 1.000
80.340 148.000 1.000
80.360 131.000 1.000
80.380 148.000 1.000
80.400 131.000 1.000
80.420 153.000 1.000
80.440 139.000 1.000
80.460 117.000 1.000
80.480 135.000 1.000
80.500 162.000 1.000
80.520 140.000 1.000
80.540 140.000 1.000
80.560 149.000 1.000
80.580 141.000 1.000
80.600 117.000 1.000
80.620 144.000 1.000
80.640 146.000 1.000
80.660 139.000 1.000
80.680 122.000 1.000
80.700 137.000 1.000
80.720 147.000 1.000
80.740 143.000 1.000
80.760 132.000 1.000
80.780 139.000 1.000
80.800 126.000 1.000
80.820 140.000 1.000
80.840 130.000 1.000
80.860 141.000 1.000
80.880 125.000 1.000
80.900 130.000 1.000
80.920 136.000 1.000
80.940 134.000 1.000
80.960 152.000 1.000
80.980 145.000 1.000
81.000 134.000 1.000
81.020 140.000 1.000
81.040 127.000 1.000
81.060 136.000 1.000
81.080 144.000 1.000
81.100 142.000 1.000
81.120 131.000 1.000
81.140 139.000 1.000
81.160 144.000 1.000
81.180 143.000 1.000
81.200 132.000 1.000
81.220 138.000 1.000
81.240 128.000 1.000
81.260 128.000 1.000
81.280 121.000 1.000
81.300 121.000 1.000
81.320 138.000 1.000
81.340 134.000 1.000
81.360 148.000 1.000
81.380 150.000 1.000
81.400 142.000 1.000
81.420 118.000 1.000
81.440 145.000 1.000
81.460 143.000 1.000
81.480 150.000 1.000
81.500 125.000 1.000
81.520 132.000 1.000
81.540 134.000 1.000
81.560 137.000 1.000
81.580 137.000 1.000
81.600 138.000 1.000
81.620 131.000 1.000
81.640 121.000 1.000
81.660 138.000 1.000
81.680 145.000 1.000
81.700 128.000 1.000
81.720 133.000 1.000
81.740 127.000 1.000
81.760 139.000 1.000
81.780 154.000 1.000
81.800 127.000 1.000
81.820 140.000 1.000
81.840 140.000 1.000
81.860 151.000 1.000
81.880 139.000 1.000
81.900 127.000 1.000
81.920 146.000 1.000
81.940 134.000 1.000
81.960 150.000 1.000
81.980 133.000 1.000
82.000 140.000 1.000
82.020 142.000 1.000
82.040 146.000 1.000
82.060 151.000 1.000
82.080 143.000 1.000
82.100 130.000 1.000
82.120 147.000 1.000
82.140 129.000 1.000
82.160 144.000 1.000
82.180 137.000 1.000
82.200 132.000 1.000
82.220 124.000 1.000
82.240 142.000 1.000
82.260 145.000 1.000
82.280 148.000 1.000
82.300 137.000 1.000
82.320 150.000 1.000
82.340 139.000 1.000
82.360 135.000 1.000
82.380 157.000 1.000
82.400 145.000 1.000
82.420 128.000 1.000
82.440 135.000 1.000
82.460 126.000 1.000
82.480 143.000 1.000
82.500 128.000 1.000
82.520 144.000 1.000
82.540 140.000 1.000
82.560 146.000 1.000
82.580 155.000 1.000
82.600 162.000 1.000
82.620 141.000 1.000
82.640 130.000 1.000
82.660 141.000 1.000
82.680 130.000 1.000
82.700 117.000 1.000
82.720 152.000 1.000
82.740 145.000 1.000
82.760 127.000 1.000
82.780 127.000 1.000
82.800 148.000 1.000
82.820 139.000 1.000
82.840 112.000 1.000
82.860 120.000 1.000
82.880 135.000 1.000
82.900 138.000 1.000
82.920 131.000 1.000
82.940 141.000 1.000
82.960 139.000 1.000
82.980 140.000 1.000
83.000 138.000 1.000
83.020 145.000 1.000
83.040 129.000 1.000
83.060 142.000 1.000
83.080 142.000 1.000
83.100 143.000 1.000
83.120 141.000 1.000
83.140 138.000 1.000
83.160 136.000 1.000
83.180 138.000 1.000
83.200 137.000 1.000
83.220 127.000 1.000
83.240 128.000 1.000
83.260 137.000 1.000
83.280 146.000 1.000
83.300 132.000 1.000
83.320 133.000 1.000
83.340 123.000 1.000
83.360 137.000 1.000
83.380 132.000 1.000
83.400 133.000 1.000
83.420 138.000 1.000
83.440 135.000 1.000
83.460 116.000 1.000
83.480 133.000 1.000
83.500 134.000 1.000
83.520 135.000 1.000
83.540 137.000 1.000
83.560 136.000 1.000
83.580 139.000 1.000
83.600 150.000 1.000
83.620 145.000 1.000
83.640 161.000 1.000
83.660 138.000 1.000
83.680 127.000 1.000
83.700 153.000 1.000
83.720 129.000 1.000
83.740 129.000 1.000
83.760 145.000 1.000
83.780 150.000 1.000
83.800 147.000 1.000
83.820 119.000 1.000
83.840 133.000 1.000
83.860 132.000 1.000
83.880 136.000 1.000
83.900 154.000 1.000
83.920 152.000 1.000
83.940 158.000 1.000
83.960 125.000 1.000
83.980 161.000 1.000
84.000 150.000 1.000
84.020 132.000 1.000
84.040 149.000 1.000
84.060 140.000 1.000
84.080 149.000 1.000
84.100 134.000 1.000
84.120 127.000 1.000
84.140 128.000 1.000
84.160 146.000 1.000
84.180 142.000 1.000
84.200 126.000 1.000
84.220 145.000 1.000
84.240 142.000 1.000
84.260 154.000 1.000
84.280 129.000 1.000
84.300 144.000 1.000
84.320 160.000 1.000
84.340 127.000 1.000
84.360 168.000 1.000
84.380 146.000 1.000
84.400 132.000 1.000
84.420 151.000 1.000
84.440 140.000 1.000
84.460 143.000 1.000
84.480 134.000 1.000
84.500 147.000 1.000
84.520 140.000 1.000
84.540 148.000 1.000
84.560 129.000 1.000
84.580 147.000 1.000
84.600 130.000 1.000
84.620 129.000 1.000
84.640 135.000 1.000
84.660 139.000 1.000
84.680 142.000 1.000
84.700 129.000 1.000
84.720 121.000 1.000
84.740 138.000 1.000
84.760 140.000 1.000
84.780 115.000 1.000
84.800 140.000 1.000
84.820 148.000 1.000
84.840 142.000 1.000
84.860 147.000 1.000
84.880 148.000 1.000
84.900 141.000 1.000
84.920 136.000 1.000
84.940 146.000 1.000
84.960 150.000 1.000
84.980 149.000 1.000
85.000 128.000 1.000
85.020 131.000 1.000
85.040 134.000 1.000
85.060 140.000 1.000
85.080 134.000 1.000
85.100 137.000 1.000
85.120 156.000 1.000
85.140 126.000 1.000
85.160 153.000 1.000
85.180 137.000 1.000
85.200 136.000 1.000
85.220 126.000 1.000
85.240 118.000 1.000
85.260 145.000 1.000
85.280 150.000 1.000
85.300 147.000 1.000
85.320 133.000 1.000
85.340 154.000 1.000
85.360 160.000 1.000
85.380 138.000 1.000
85.400 148.000 1.000
85.420 134.000 1.000
85.440 155.000 1.000
85.460 154.000 1.000
85.480 146.000 1.000
85.500 152.000 1.000
85.520 138.000 1.000
85.540 136.000 1.000
85.560 137.000 1.000
85.580 136.000 1.000
85.600 140.000 1.000
85.620 148.000 1.000
85.640 156.000 1.000
85.660 146.000 1.000
85.680 152.000 1.000
85.700 144.000 1.000
85.720 138.000 1.000
85.740 134.000 1.000
85.760 152.000 1.000
85.780 143.000 1.000
85.800 119.000 1.000
85.820 152.000 1.000
85.840 124.000 1.000
85.860 133.000 1.000
85.880 149.000 1.000
85.900 141.000 1.000
85.920 140.000 1.000
85.940 147.000 1.000
85.960 155.000 1.000
85.980 160.000 1.000
86.000 138.000 1.000
86.020 125.000 1.000
86.040 141.000 1.000
86.060 129.000 1.000
86.080 150.000 1.000
86.100 125.000 1.000
86.120 136.000 1.000
86.140 154.000 1.000
86.160 140.000 1.000
86.180 153.000 1.000
86.200 145.000 1.000
86.220 143.000 1.000
86.240 133.000 1.000
86.260 128.000 1.000
86.280 134.000 1.000
86.300 151.000 1.000
86.320 141.000 1.000
86.340 144.000 1.000
86.360 144.000 1.000
86.380 144.000 1.000
86.400 142.000 1.000
86.420 144.000 1.000
86.440 140.000 1.000
86.460 138.000 1.000
86.480 144.000 1.000
86.500 162.000 1.000
86.520 136.000 1.000
86.540 122.000 1.000
86.560 141.000 1.000
86.580 133.000 1.000
86.600 142.000 1.000
86.620 146.000 1.000
86.640 165.000 1.000
86.660 149.000 1.000
86.680 145.000 1.000
86.700 155.000 1.000
86.720 139.000 1.000
86.740 163.000 1.000
86.760 159.000 1.000
86.780 159.000 1.000
86.800 151.000 1.000
86.820 155.000 1.000
86.840 156.000 1.000
86.860 172.000 1.000
86.880 158.000 1.000
86.900 146.000 1.000
86.920 125.000 1.000
86.940 136.000 1.000
86.960 145.000 1.000
86.980 149.000 1.000
87.000 129.000 1.000
87.020 166.000 1.000
87.040 139.000 1.000
87.060 153.000 1.000
87.080 136.000 1.000
87.100 137.000 1.000
87.120 134.000 1.000
87.140 146.000 1.000
87.160 164.000 1.000
87.180 139.000 1.000
87.200 131.000 1.000
87.220 146.000 1.000
87.240 158.000 1.000
87.260 135.000 1.000
87.280 151.000 1.000
87.300 126.000 1.000
87.320 144.000 1.000
87.340 156.000 1.000
87.360 149.000 1.000
87.380 135.000 1.000
87.400 132.000 1.000
87.420 127.000 1.000
87.440 123.000 1.000
87.460 137.000 1.000
87.480 133.000 1.000
87.500 142.000 1.000
87.520 133.000 1.000
87.540 146.000 1.000
87.560 129.000 1.000
87.580 128.000 1.000
87.600 151.000 1.000
87.620 130.000 1.000
87.640 130.000 1.000
87.660 128.000 1.000
87.680 125.000 1.000
87.700 128.000 1.000
87.720 142.000 1.000
87.740 128.000 1.000
87.760 129.000 1.000
87.780 141.000 1.000
87.800 132.000 1.000
87.820 135.000 1.000
87.840 119.000 1.000
87.860 127.000 1.000
87.880 130.000 1.000
87.900 126.000 1.000
87.920 121.000 1.000
87.940 97.000 1.000
87.960 130.000 1.000
87.980 125.000 1.000
88.000 110.000 1.000
88.020 114.000 1.000
88.040 113.000 1.000
88.060 126.000 1.000
88.080 128.000 1.000
88.100 136.000 1.000
88.120 119.000 1.000
88.140 135.000 1.000
88.160 118.000 1.000
88.180 139.000 1.000
88.200 116.000 1.000
88.220 116.000 1.000
88.240 143.000 1.000
88.260 126.000 1.000
88.280 135.000 1.000
88.300 111.000 1.000
88.320 133.000 1.000
88.340 129.000 1.000
88.360 122.000 1.000
88.380 116.000 1.000
88.400 125.000 1.000
88.420 123.000 1.000
88.440 114.000 1.000
88.460 118.000 1.000
88.480 132.000 1.000
88.500 141.000 1.000
88.520 141.000 1.000
88.540 148.000 1.000
88.560 131.000 1.000
88.580 126.000 1.000
88.600 143.000 1.000
88.620 134.000 1.000
88.640 114.000 1.000
88.660 119.000 1.000
88.680 108.000 1.000
88.700 140.000 1.000
88.720 150.000 1.000
88.740 124.000 1.000
88.760 118.000 1.000
88.780 114.000 1.000
88.800 118.000 1.000
88.820 125.000 1.000
88.840 132.000 1.000
88.860 137.000 1.000
88.880 143.000 1.000
88.900 123.000 1.000
88.920 124.000 1.000
88.940 133.000 1.000
88.960 146.000 1.000
88.980 142.000 1.000
89.000 128.000 1.000
89.020 123.000 1.000
89.040 129.000 1.000
89.060 114.000 1.000
89.080 112.000 1.000
89.100 142.000 1.000
89.120 132.000 1.000
89.140 124.000 1.000
89.160 128.000 1.000
89.180 126.000 1.000
89.200 139.000 1.000
89.220 119.000 1.000
89.240 113.000 1.000
89.260 119.000 1.000
89.280 139.000 1.000
89.300 128.000 1.000
89.320 135.000 1.000
89.340 138.000 1.000
89.360 130.000 1.000
89.380 113.000 1.000
89.400 126.000 1.000
89.420 141.000 1.000
89.440 139.000 1.000
89.460 137.000 1.000
89.480 133.000 1.000
89.500 140.000 1.000
89.520 130.000 1.000
89.540 137.000 1.000
89.560 118.000 1.000
89.580 135.000 1.000
89.600 112.000 1.000
89.620 136.000 1.000
89.640 139.000 1.000
89.660 153.000 1.000
89.680 129.000 1.000
89.700 139.000 1.000
89.720 141.000 1.000
89.740 136.000 1.000
89.760 143.000 1.000
89.780 136.000 1.000
89.800 139.000 1.000
89.820 143.000 1.000
89.840 140.000 1.000
89.860 136.000 1.000
89.880 124.000 1.000
89.900 143.000 1.000
89.920 131.000 1.000
89.940 113.000 1.000
89.960 117.000 1.000
89.980 149.000 1.000
90.000 139.000 1.000
